"Time (s)","Linear Acceleration x (m/s^2)","Linear Acceleration y (m/s^2)","Linear Acceleration z (m/s^2)"
1.675769550E-1,6.400406361E-2,3.072118759E-2,8.374166489E-2
1.874650990E-1,9.165906906E-2,8.358573914E-2,1.090259552E-1
2.073526720E-1,-1.230183840E-1,8.775854111E-2,4.149947166E-1
2.272412630E-1,3.058671951E-3,3.400754929E-2,4.808788300E-1
2.471103230E-1,1.061261892E-1,-6.570196152E-2,1.291599274E-1
2.670177540E-1,5.015015602E-3,6.418848038E-2,1.880168915E-2
2.869059780E-1,1.072895527E-2,-6.301689148E-2,-7.304382324E-2
3.067918430E-1,-2.568389177E-1,8.499479294E-2,-6.591033936E-2
3.266532120E-1,-2.024861574E-1,-2.470541000E-2,-4.897856712E-1
3.465512840E-1,7.885277271E-2,-8.908557892E-2,1.036868095E-1
3.664585930E-1,5.642485619E-2,2.428197861E-2,-5.694246292E-1
3.863466550E-1,1.720675230E-1,-8.291339874E-2,1.058325768E-1
4.062349610E-1,-1.692647934E-1,1.173763275E-1,-2.124962807E-1
4.261228600E-1,-1.880376339E-1,8.110713959E-2,1.687955856E-2
4.459941170E-1,-1.055300236E-1,4.910278320E-2,-1.112585068E-1
4.658865740E-1,3.444433212E-3,9.004592896E-3,-1.745786667E-1
4.857745540E-1,7.349991798E-2,-5.145025253E-2,-7.613325119E-2
5.056629820E-1,-1.125097275E-3,5.722522736E-2,9.567165375E-2
5.255509220E-1,-2.638804913E-1,1.025032997E-1,3.103590012E-2
5.454391060E-1,-1.775493622E-1,6.955432892E-2,-1.915526390E-1
5.653271680E-1,-1.315908432E-1,-6.931304932E-3,-1.498293877E-1
5.852154340E-1,1.439015865E-1,-1.384577751E-1,-2.079763412E-1
6.051034960E-1,8.760356903E-2,-6.964397430E-2,-1.572742462E-1
6.249763810E-1,-1.248466969E-1,-3.321170807E-2,-1.997337341E-1
6.448798640E-1,-1.029384136E-1,-8.562326431E-2,-5.281181335E-1
6.647681300E-1,-1.567995548E-1,-2.859125137E-1,-8.641853333E-1
6.846562320E-1,-6.904301643E-1,4.121713638E-1,-3.199024200E-1
7.045445790E-1,-6.278076172E-1,8.709416389E-1,1.119422913E-2
7.244493240E-1,-5.081305504E-1,7.210898399E-1,7.809944153E-1
7.443511390E-1,-2.133501768E-1,1.597533226E-1,7.471451759E-1
7.642222740E-1,-1.003535986E-1,5.272674561E-2,4.585914612E-1
7.841098890E-1,1.880332232E-1,-1.213521957E-1,5.304923058E-1
8.039981130E-1,1.417505741E-1,-2.680616379E-1,2.840890884E-1
8.238773860E-1,4.702343941E-1,-3.558521271E-1,-1.099948406E0
8.437746040E-1,3.628684282E-1,-4.873847961E-1,-6.927380562E-1
8.636628690E-1,2.661192417E-1,-1.852836609E-1,-8.731317520E-2
8.835511750E-1,2.477544546E-1,-1.648263931E-1,-9.476995468E-2
9.034393190E-1,1.634182930E-1,-1.879405975E-2,-2.375717163E-1
9.233085000E-1,2.362751961E-2,9.343147278E-2,1.053571701E-2
9.432026250E-1,-1.591761112E-1,1.712150574E-1,1.379828453E-1
9.630755510E-1,9.058570862E-2,-9.566307068E-2,1.039175987E-1
9.829779350E-1,2.015992403E-1,-1.272253990E-1,-5.948209763E-2
1.002844594E0,2.151519060E-1,-1.301369667E-1,-2.103004456E-1
1.022755199E0,1.108021736E-1,-9.047794342E-2,-9.121990204E-2
1.042643749E0,4.847478867E-2,-1.541662216E-2,1.750173569E-1
1.062531852E0,-1.580624580E-1,1.109886169E-1,3.238630295E-1
1.082420036E0,-1.409240961E-1,1.246581078E-1,1.740837097E-2
1.102308301E0,-1.037808657E-1,1.229896545E-1,2.477645874E-3
1.122196485E0,2.259755135E-2,-1.468086243E-2,8.968448639E-2
1.142084629E0,3.607034683E-3,2.288150787E-2,2.052664757E-1
1.161972609E0,-1.342300177E-1,1.670465469E-1,2.257194519E-1
1.181860956E0,-2.259267569E-1,1.603231430E-1,7.058620453E-3
1.201749100E0,-3.723865747E-1,1.794252396E-1,-2.524271011E-1
1.221621455E0,-2.263624668E-1,6.503963470E-2,-5.594062805E-2
1.241509924E0,3.693020344E-2,-7.305145264E-2,-1.321096420E-1
1.261413490E0,5.679893494E-2,-1.942777634E-2,-3.753428459E-1
1.281301918E0,-9.171056747E-2,1.710734367E-1,-2.572546005E-1
1.301189818E0,-6.525331736E-1,4.833621979E-1,2.446517944E-1
1.321078042E0,-7.880806923E-1,1.117754459E0,2.021160126E-1
1.340979532E0,-1.163912535E0,1.224115372E0,5.526161194E-2
1.360867716E0,-5.930194855E-1,4.698667526E-1,-1.022677422E-1
1.380755900E0,-1.078012586E-1,-4.292201996E-1,8.590998650E-1
1.400627727E0,-1.097408533E-1,-4.203658104E-1,8.098878860E-1
1.420532350E0,4.947572947E-2,-4.130606651E-1,5.245118141E-1
1.440407391E0,2.657782733E-1,-9.621667862E-2,-6.037130356E-1
1.460295738E0,5.321385860E-1,-1.715555191E-1,-7.730364799E-1
1.480183800E0,8.632127047E-1,-8.931951523E-1,-9.629917145E-2
1.500056359E0,1.467600107E0,-1.914630413E0,-1.022825241E-1
1.519960168E0,7.492085695E-1,-6.955494881E-1,-9.882326126E-1
1.539848271E0,-5.772811174E-2,1.352581978E-1,-1.052720070E0
1.559736536E0,-9.774678946E-2,1.972236633E-1,-2.279014587E-1
1.579624558E0,6.080359221E-2,1.608324051E-2,4.108343124E-1
1.599512538E0,-3.608942032E-2,-5.664825439E-4,3.261995316E-1
1.619414028E0,-3.544080257E-2,1.415801048E-1,-4.387474060E-2
1.639289150E0,-2.552238107E-1,1.554875374E-1,-1.235532761E-1
1.659177335E0,-1.112914085E-1,-3.350801468E-1,-4.055538177E-1
1.679065681E0,-1.640207767E-1,-1.716585159E-1,-1.232928276E0
1.698953459E0,-2.575348616E-1,1.465258598E-1,-6.286506653E-1
1.718840625E0,-2.972910404E-1,1.867070198E-1,1.148971081E0
1.738742685E0,1.155571342E-1,2.425870895E-1,1.571696758E0
1.758631398E0,2.584553361E-1,3.197684288E-1,-2.381553650E-1
1.778504893E0,-2.656049728E-1,5.585527420E-2,-1.304881573E0
1.798394704E0,-3.931615353E-1,-1.096239090E-1,-9.535198212E-1
1.818282766E0,-5.009630919E-1,-1.564073563E-2,-5.266671181E-1
1.838169445E0,1.332703233E-1,-2.665390968E-1,-4.637765884E-2
1.858058890E0,2.330511808E-1,3.464984894E-2,2.179851532E-1
1.877953422E0,1.062185764E-1,2.364001274E-1,2.143759727E-1
1.897848524E0,-1.197039485E-1,1.906833649E-1,-1.950149536E-1
1.917717421E0,-3.942251801E-1,3.484292030E-1,3.332843781E-1
1.937612237E0,-5.350124836E-2,-5.617046356E-2,-3.104467392E-1
1.957500055E0,3.366155624E-1,-2.835817337E-1,-2.378649712E-1
1.977374811E0,-4.527137280E-1,6.389112473E-1,-5.794820786E-1
1.997261002E0,-8.555272222E-1,7.468471527E-1,-1.948032379E-1
2.017164404E0,-9.682691097E-1,7.680888176E-1,1.072106361E-1
2.037051123E0,-7.105085254E-1,6.221976280E-1,-3.144955635E-1
2.056940935E0,8.651804179E-2,-4.749083519E-1,2.027449608E-1
2.076829241E0,7.160005569E-1,-8.800373077E-1,1.570234299E-1
2.096717344E0,9.057928324E-1,-9.941086769E-1,3.732585907E-1
2.116617979E0,6.771856546E-1,-3.584589958E-1,2.574734688E-1
2.136493915E0,4.033700526E-1,-5.286216736E-2,3.248200417E-1
2.156366108E0,2.601758242E-1,-1.133632660E-1,3.627905846E-1
2.176270039E0,-8.046278358E-2,-9.761762619E-2,8.991956711E-2
2.196158305E0,-3.869403601E-1,6.267442703E-1,7.987880707E-2
2.216045024E0,-1.603632808E0,2.279577732E0,-6.359009743E-1
2.235945741E0,-1.718056321E0,2.585502625E0,-5.309104919E-2
2.255835471E0,-1.982919812E0,1.904127598E0,7.771587372E-2
2.275723207E0,-2.229416609E0,9.704732895E-1,-5.841727257E-1
2.295612287E0,-1.615572214E0,-1.063513756E-1,-2.764053345E-1
2.315500389E0,7.861026525E-1,-7.369790077E-1,-6.504869461E-2
2.335389306E0,9.859359264E-1,-1.494265079E0,-2.828583717E-1
2.355249617E0,1.248769641E0,-1.651583195E0,-1.313794136E0
2.375163151E0,1.436177492E0,-1.881884098E0,-1.993744850E0
2.395051172E0,1.998144388E0,-2.422134876E0,-1.435552120E0
2.414928614E0,2.483558655E0,-2.661293507E0,4.636764526E-3
2.434820542E0,6.179811954E-1,-5.899705887E-1,1.840340137E0
2.454689154E0,2.916950583E-1,-2.118363380E-1,2.019974232E0
2.474592597E0,1.244599819E0,-9.502019882E-1,4.941964149E-1
2.494465359E0,3.818078041E-1,1.231551170E-1,-2.630877495E-1
2.514368884E0,-1.950650811E0,1.329735279E0,-4.424276352E-1
2.534257149E0,-1.297193170E0,6.868367195E-1,2.901620865E-1
2.554145374E0,-2.244655788E-1,4.813680649E-1,4.497208595E-1
2.574032663E0,2.600026727E-1,4.823799133E-1,-4.837951660E-1
2.593921742E0,8.405929804E-2,1.383719444E-1,5.398511887E-2
2.613822988E0,-3.362151384E-1,8.853006363E-2,1.126749039E0
2.633682851E0,-4.854667187E-2,-1.857519150E-1,1.208118439E0
2.653586294E0,-3.861585259E-1,4.149580002E-2,8.888912201E-1
2.673474397E0,-5.506646633E-2,1.345114708E-1,-5.576224327E-1
2.693362540E0,1.334170103E-1,1.326560974E-3,-5.832667351E-1
2.713250725E0,-1.344533563E-1,-1.498365402E-2,1.293559074E-1
2.733139560E0,-4.845988750E-2,5.286645889E-2,3.660435677E-1
2.753031324E0,2.084262371E-1,-6.775856018E-2,-1.710686684E-1
2.772938714E0,1.437568069E-1,1.148939133E-2,-6.020593643E-1
2.792801426E0,-7.504820824E-3,7.035923004E-2,-2.538442612E-1
2.812702997E0,-1.443572640E-1,-2.259492874E-2,1.467175484E-1
2.832590815E0,-1.459466815E-1,-3.805208206E-2,-1.843166351E-2
2.852478837E0,-2.154312134E-1,-9.256362915E-3,-4.637608528E-1
2.872367794E0,4.863339663E-2,-6.203651428E-4,-4.232702255E-1
2.892255937E0,1.925548911E-1,-3.756332397E-2,-3.290514946E-1
2.912125648E0,1.161642075E-1,1.172862053E-1,1.032223701E-1
2.932015093E0,-7.496947050E-2,-3.253936768E-3,2.362155914E-1
2.951908771E0,-1.610178351E-1,5.036354065E-3,3.666272163E-1
2.971796914E0,-3.858596087E-2,-6.816816330E-2,-1.903290749E-1
2.991669921E0,-5.873441696E-2,6.022930145E-3,-2.725939751E-1
3.011573567E0,-1.146936417E-2,3.722524643E-2,-6.001725197E-1
3.031446005E0,5.488711596E-2,5.858087540E-2,-3.935112953E-1
3.051349855E0,1.319043040E-1,-1.079220772E-1,-9.026384354E-2
3.071238364E0,9.507375956E-2,1.852273941E-1,3.960084915E-2
3.091126304E0,-6.210744381E-2,2.610588074E-2,5.043983459E-3
3.111014489E0,-1.749557853E-1,-3.429412842E-2,7.161140442E-3
3.130902591E0,2.517980337E-2,-1.505947113E-1,3.945956230E-1
3.150790816E0,-5.855625868E-2,2.156624794E-1,3.307528496E-1
3.170679000E0,1.260900497E-1,1.155896187E-1,4.622654915E-1
3.190567184E0,-1.733535528E-2,1.444973946E-1,-5.873975754E-1
3.210455328E0,2.685906291E-1,-2.089371681E-1,-2.049442768E0
3.230328090E0,-1.040441096E-1,-2.438993454E-1,-1.141328812E0
3.250216274E0,2.098438144E-2,-1.310768127E-1,-5.920920372E-1
3.270104295E0,3.480714560E-2,1.009464264E-2,1.434631348E-1
3.290007982E0,-3.191443086E-1,1.300215721E-1,1.015242100E0
3.309896004E0,-2.597702742E-1,2.929887772E-1,1.439888954E0
3.329784188E0,-4.742562771E-2,1.351499557E-1,7.262682915E-1
3.349672413E0,5.101928115E-2,1.265525818E-3,-1.260662079E-1
3.369574147E0,-5.222777277E-2,-1.197896004E-1,-6.780986786E-1
3.389460500E0,9.675133228E-2,-1.381225586E-1,-9.959144592E-1
3.409348480E0,1.203368753E-1,-1.139636040E-1,-7.018003464E-1
3.429219534E0,-1.338519901E-2,-3.418397903E-2,4.615335464E-1
3.449113618E0,1.993380785E-1,7.939338684E-4,9.257402420E-1
3.469004487E0,5.717777014E-1,-4.169936180E-1,4.645133018E-1
3.488889945E0,2.456981093E-1,-1.079592705E-1,-3.405056000E-1
3.508775485E0,4.821143746E-1,-4.420003891E-1,-1.239595890E0
3.528668999E0,3.146240115E-1,-4.182062149E-1,-1.597076416E0
3.548554416E0,3.472802043E-2,-2.179112434E-1,-1.378389359E0
3.568442478E0,1.218029499E0,-1.508302212E0,-5.136637688E-1
3.588330744E0,1.066911936E0,-1.725205421E0,2.244720459E-1
3.608230199E0,1.151944399E0,-1.333945751E0,1.261730194E-1
3.628118017E0,9.144319296E-1,-1.112399578E0,-9.138908386E-1
3.647996517E0,4.027240872E-1,-8.049578667E-1,-1.409682751E0
3.667883439E0,-6.094756126E-1,1.426612377E0,-1.020543098E0
3.687771501E0,-1.372774124E0,1.638582706E0,-1.131563187E-1
3.707658180E0,-1.648679972E-1,1.920342445E-1,6.667995453E-2
3.727546567E0,5.574706793E-1,4.475808144E-1,5.738182068E-1
3.747434792E0,-1.403392076E0,1.104783058E0,1.696281433E-1
3.767322936E0,-2.480458736E0,3.771562576E-1,3.118591309E-1
3.787210916E0,-1.583731413E0,-2.967853546E-1,-5.257701874E-1
3.807092712E0,2.532376647E-1,-6.206271648E-1,-3.204793930E-1
3.826989685E0,1.218000054E-1,6.241884232E-1,1.508579254E-1
3.846889384E0,-6.656886339E-1,-4.322469234E-1,-2.436703205E0
3.866777731E0,-2.683837652E0,-1.483832836E0,-3.220778942E0
3.886665753E0,-3.930603266E-1,-2.594777107E0,-6.583018303E0
3.906542665E0,7.662127614E-1,-2.314901829E0,6.819440842E0
3.926442690E0,2.358610630E-1,-1.571522474E0,4.375151634E0
3.946317569E0,-1.952677965E0,2.431204319E-1,2.657306671E0
3.966206078E0,-9.202151895E-1,6.512792110E-1,2.438850403E0
3.986100569E0,7.283236980E-1,6.395285130E-1,9.376220703E-1
4.005982243E0,-2.885288000E-2,6.797544956E-1,-6.532764435E-2
4.025870631E0,1.324030757E-1,-2.568581104E-1,-2.530269623E-1
4.045758489E0,2.548646927E-2,-9.383320808E-1,-6.258506775E-1
4.065646836E0,-5.888685584E-2,-1.127881527E0,-6.333827972E-1
4.085525295E0,-2.098390758E-1,-1.719888449E-1,1.268005371E-1
4.105435696E0,6.311295629E-1,3.096325397E-1,-1.000124931E0
4.125324165E0,1.015474200E-1,4.464230537E-1,-1.655225277E0
4.145199450E0,-2.992911935E-1,-1.532423496E-2,-2.072227478E0
4.165088163E0,-5.356978178E-1,-1.237884760E-1,-6.696310043E-1
4.184970773E0,7.447588444E-1,-5.321931839E-2,1.796226501E0
4.204863962E0,-8.869502544E-1,1.923809409E0,3.404489517E0
4.224752512E0,7.945840955E-1,1.385388732E0,6.524953842E-1
4.244653188E0,1.212458968E0,9.185270071E-1,4.383897781E-1
4.264540925E0,7.136156559E-1,3.618276119E-1,-3.427400589E-1
4.284427807E0,-3.089016676E-1,5.136742592E-1,-3.583240509E-1
4.304318391E0,2.699369192E-1,1.612275839E-1,-1.283571243E0
4.324206250E0,1.088686109E0,-4.129260778E-1,-1.060769081E0
4.344092318E0,8.993424177E-1,-1.029417753E0,-1.384729385E0
4.363964063E0,-5.822777748E-3,-1.283796906E0,1.865875244E0
4.383870680E0,-1.185840964E0,-3.153669834E-1,1.953090668E0
4.403745721E0,1.022767544E0,1.942826033E0,-1.242405891E1
4.423633824E0,1.236610532E0,-3.436484337E-1,3.946943283E-1
4.443522008E0,-7.169912457E-1,-3.092802763E-1,3.291031837E0
4.463410233E0,-2.856169939E-1,-2.588785291E-1,-2.405004501E-1
4.483298417E0,4.490119219E-1,1.712224483E0,-5.068407059E-1
4.503186520E0,-2.830833383E-2,1.137108326E0,2.721138000E-1
4.523059445E0,2.413778901E-1,-2.257338613E-1,7.061700821E-1
4.542956215E0,4.138005674E-1,-3.589285314E-1,6.607313156E-1
4.562860878E0,6.503337994E-3,-4.298866391E-1,5.129833221E-1
4.582739337E0,-4.039246440E-1,2.977574766E-1,-2.668066025E-1
4.602638793E0,-8.899730444E-1,7.846599817E-1,-8.121099472E-1
4.622527261E0,-3.118872941E-1,2.739124596E-1,-2.164640427E-1
4.642402506E0,-6.750522852E-1,6.026062965E-1,9.271888733E-1
4.662290731E0,-5.670669079E-1,-7.947015762E-2,2.541509628E0
4.682178711E0,-3.998184800E-1,6.283344030E-1,1.296427727E0
4.702066977E0,8.093754053E-1,1.678345680E0,2.529136658E0
4.721956707E0,1.267873645E0,1.966894865E0,2.925443649E0
4.741857505E0,1.371399641E0,1.983615994E0,7.595653534E-1
4.761745567E0,-1.676149130E0,2.233251572E0,9.140338898E-1
4.781633629E0,-1.878419638E0,1.437985301E0,2.837183952E0
4.801520064E0,-1.045462966E0,9.864027500E-1,3.087347031E0
4.821391688E0,3.206613064E-1,4.700942039E-1,6.986055374E-1
4.841298264E0,-2.642171383E-1,-1.192972660E-1,-6.162370682E0
4.861184617E0,-2.038017988E0,-7.179315090E-1,-7.864896774E0
4.881073289E0,-2.533160686E0,-1.778489828E0,-6.232730389E0
4.900962653E0,-3.553106308E0,-5.989336967E-1,9.288578033E-1
4.920851407E0,-1.711517572E0,-1.514281750E0,2.243270874E-1
4.940726733E0,2.359468937E0,-1.878346443E0,1.350864410E0
4.960614673E0,3.576980829E0,-2.961544991E0,1.064591408E0
4.980502735E0,4.033567429E0,-4.190843105E0,2.410320282E0
5.000390797E0,1.527176380E0,-2.989515305E0,3.933566093E0
5.020279022E0,-1.125921249E0,-6.280577183E-2,4.674245834E0
5.040152029E0,1.648475647E0,-6.585935354E-1,1.758831978E0
5.060054495E0,3.829939365E0,-3.120255470E0,-1.892423630E0
5.079943655E0,-7.472261190E-1,-8.591313362E-1,-2.632761002E-1
5.099832124E0,5.010276437E-1,-1.631138444E0,2.829586029E0
5.119719942E0,1.588537931E0,-3.226376772E0,4.864358902E-1
5.139608330E0,1.990236163E0,-3.674089432E0,-1.311523438E0
5.159496473E0,1.362346888E0,-3.123393059E0,-2.748605728E0
5.179383355E0,-9.234512448E-1,-2.583415985E0,-2.699540615E0
5.199272923E0,-3.315829754E0,-1.317697525E0,-1.717483521E0
5.219161107E0,-2.512930632E0,-1.232953072E-1,4.757308960E-2
5.239060603E0,-1.446250677E0,4.125900269E-1,-1.903292656E0
5.258950577E0,-3.218801975E0,2.341128826E0,-2.105905056E0
5.278838354E0,-4.476179600E0,3.477743149E0,-1.689640999E0
5.298709204E0,-4.451464653E0,3.548503399E0,-1.597140312E0
5.318614763E0,-2.306829929E0,1.020598412E0,2.232952118E-1
5.338503720E0,3.400590897E0,-2.584020376E0,5.603491783E0
5.358389666E0,4.628003120E0,-8.339319229E-1,6.377517700E0
5.378277525E0,3.109903812E0,-2.704092741E0,5.036288261E0
5.398165913E0,2.180482864E0,-6.491692066E0,2.365517616E0
5.418037861E0,1.947225809E0,-7.190733910E0,1.286244392E0
5.437929830E0,1.922348022E0,-5.879459381E0,4.227142334E-1
5.457819153E0,2.055502892E0,-5.644836426E0,-1.747417450E-2
5.477707052E0,8.868469596E-1,-6.467398643E0,2.863588333E-1
5.497594545E0,-7.699545026E-1,-6.055509567E0,1.880397797E-1
5.517482078E0,-1.999747753E0,-5.546501160E0,2.058591843E-1
5.537370221E0,-1.529952288E0,-5.571840286E0,8.206396103E-1
5.557258568E0,-1.432934642E0,-5.526379585E0,-2.314683914E0
5.577146833E0,-1.676356554E0,-5.243271351E0,-8.065527916E0
5.597047550E0,-2.669566154E0,-3.126006365E0,-1.172509003E1
5.616918278E0,-2.474992752E0,7.629108429E-2,-1.084210205E1
5.636812810E0,-2.101796389E0,-2.697935104E-1,-8.308456421E0
5.656700831E0,-7.357652187E-1,-3.136162758E-1,-8.164326668E0
5.676588730E0,1.513771296E0,5.480973721E-1,-7.670721531E0
5.696477240E0,5.398844242E0,1.971677542E0,-6.233393669E0
5.716365302E0,5.654785156E0,4.578071117E0,-4.944904804E0
5.736253608E0,5.631170273E0,4.699639797E0,-4.265557289E0
5.756140246E0,3.395326853E0,3.219957590E0,-2.115454197E0
5.776028552E0,-1.187855124E0,3.293132782E0,4.762113571E0
5.795917835E0,-2.933743477E0,3.242875099E0,1.048823261E1
5.815818999E0,-3.193343878E0,5.248974800E0,1.044616795E1
5.835685292E0,-2.315413713E0,4.577567577E0,1.017759228E1
5.855595042E0,-3.122385025E0,4.893504620E0,4.745555878E0
5.875483714E0,-2.064074039E0,2.966805696E0,3.476905823E0
5.895371410E0,-1.146659970E0,2.784159899E0,5.944419861E0
5.915260001E0,-9.694939852E-1,2.838193417E0,7.454814911E0
5.935119580E0,5.770245790E-1,1.827750921E0,7.540574074E0
5.955021761E0,-9.150903225E-1,8.293180466E-1,5.062604904E0
5.974911369E0,-9.388306141E-1,-5.198259950E-1,3.127911568E0
5.994799635E0,7.151225805E-1,-3.343838453E-1,3.203370094E0
6.014687941E0,1.282531381E0,-2.965147495E-1,3.003430367E0
6.034563674E0,2.049352646E0,-5.783600807E-1,2.962979317E0
6.054464065E0,1.484739542E0,-2.859002948E-1,2.022654533E0
6.074352290E0,3.510601282E0,-1.333256721E0,3.259859085E-1
6.094249792E0,3.421901703E0,-1.806088090E0,-3.026398182E0
6.114140214E0,1.996912241E0,-2.053950787E0,-4.561530113E0
6.134002763E0,5.111533999E-1,-2.268011570E0,-2.627517700E0
6.153905026E0,3.622735739E-1,-2.735509157E0,-2.533066273E0
6.173793251E0,-5.476329327E-1,-2.192381620E0,-3.016268253E0
6.193681354E0,-1.602518559E0,-1.697360277E0,-3.059437752E0
6.213560260E0,-3.572093964E0,-1.614521742E0,-2.930006504E0
6.233457681E0,-6.716536999E0,-8.123152256E-1,-1.333528519E0
6.253371337E0,-1.025824547E1,-7.512388229E-1,8.968191147E-1
6.273228149E0,-1.045857430E1,-1.332464516E-1,6.070807457E0
6.293116537E0,-6.375238895E0,-3.065406322E0,8.859014511E0
6.313004761E0,-1.765500069E0,-6.099116325E0,7.168624878E0
6.332937949E0,-4.155912399E-1,-5.544948101E0,-6.810209751E-1
6.352797813E0,-5.440199375E0,-2.760308743E0,-9.775264740E0
6.372673708E0,-5.941541672E0,-3.077556849E0,-8.238441467E0
6.392562096E0,-2.047750473E0,-1.725358367E0,-7.194741249E0
6.412449995E0,1.441869736E0,-1.707427621E0,-6.297529697E0
6.432338057E0,7.675323486E-1,-7.638074160E-1,-4.979790688E0
6.452226445E0,3.692598343E-1,-5.385832787E-1,-3.732018948E0
6.472100346E0,1.208281517E0,-2.767584324E-1,-2.506175995E0
6.491990280E0,2.603352547E0,-3.716573715E-1,-1.654930592E0
6.511892095E0,4.122253418E0,4.434812069E-1,-9.173122048E-1
6.531780239E0,4.136384964E0,1.470949292E0,-9.798352718E-1
6.551668545E0,4.195061684E0,-8.254945278E-1,2.046246529E0
6.571556648E0,2.611304283E0,-4.804475307E-1,1.987426996E0
6.591444914E0,1.198191643E0,-3.034486771E-1,2.800047874E0
6.611345956E0,2.654180527E-1,-8.907191753E-1,3.277988195E0
6.631234425E0,-4.489173889E-1,-9.518408775E-1,2.648804665E0
6.651108042E0,-8.771858215E-1,-1.100968838E0,1.824068069E0
6.670982270E0,-1.579107285E0,-4.059448242E-1,1.134691954E0
6.690885916E0,-1.089922905E0,-2.012834072E0,-9.709928632E-1
6.710773978E0,-3.731126785E-1,-2.427723885E0,-1.541954398E0
6.730662203E0,-3.843202591E-1,-1.173086166E0,-1.078710318E0
6.750563855E0,4.039745331E-1,-6.459636688E-1,-1.837084889E0
6.770451510E0,1.554581642E0,-1.029028416E0,-2.179116011E0
6.790339979E0,1.502503395E0,-1.491622925E-1,-2.082071543E0
6.810227553E0,1.802511215E0,-9.217705727E-1,-2.032071590E0
6.830114638E0,1.011025429E0,-1.810255051E-1,-9.135302305E-1
6.849985488E0,6.616230011E-1,6.137847900E-2,-1.891906261E-1
6.869892634E0,7.995414734E-1,-2.518773079E-1,-3.060024083E-1
6.889780940E0,4.674501419E-1,1.661014557E-2,-9.367842674E-1
6.909666398E0,-1.399078369E-1,-8.492898941E-2,-1.596575618E0
6.929556617E0,-7.376928329E-1,-9.446144104E-2,-1.828975677E0
6.949431902E0,-8.618555069E-1,4.296541214E-2,-1.319928646E0
6.969320330E0,-4.934005737E-1,-5.073118210E-2,-8.747411966E-1
6.989208555E0,1.048297882E-1,-8.470201492E-2,-1.710797250E-1
7.009101703E0,7.370634079E-1,-8.113288879E-2,1.283091307E-2
7.028986022E0,7.119693756E-1,-2.608737946E-1,-2.261500061E-1
7.048872741E0,6.945991516E-2,-2.081966400E-1,-2.341378033E-1
7.068761006E0,-1.460456848E-2,-4.637532234E-1,-4.951522052E-1
7.088649191E0,1.095981598E-1,-7.184514999E-1,-4.522255659E-1
7.108537415E0,2.406702042E-1,-6.787214279E-1,1.810206026E-1
7.128452414E0,6.210365295E-1,-4.071474075E-1,6.412518024E-1
7.148313580E0,1.045517921E0,-1.892690659E-1,5.242516398E-1
7.168200503E0,1.035272598E0,-5.343143940E-1,-3.000021875E-1
7.188090152E0,2.984294891E-1,-4.038560390E-1,-1.032727063E-1
7.207975610E0,-9.714031219E-2,-7.679533958E-2,6.857832074E-1
7.227865055E0,-1.895790100E-1,1.450200081E-1,1.340015650E0
7.247745101E0,-2.598180771E-1,1.373174191E-1,1.293350339E0
7.267654118E0,6.194791794E-1,-2.915616035E-1,4.432969689E-1
7.287541733E0,1.019783020E-1,3.209543228E-2,-6.002236605E-1
7.307430365E0,3.735160828E-1,-1.807594299E-1,-1.476144314E0
7.327318304E0,6.457281113E-1,-6.330847740E-2,-1.983373165E0
7.347191230E0,7.084360123E-1,-8.839297295E-2,-1.663040876E0
7.367095120E0,1.094979286E0,-7.054114342E-2,-5.409946442E-1
7.386984769E0,1.015893936E0,1.361808777E-1,6.604762077E-1
7.406872994E0,1.686765671E0,-8.117818832E-2,-3.711763620E-1
7.426742990E0,2.106328011E0,-1.469790697E0,-2.018074989E0
7.446636219E0,1.904884338E0,-1.235872030E0,-8.815337420E-1
7.466524485E0,1.500865936E0,-1.200864196E0,-1.783650160E0
7.486412628E0,1.840977669E0,-1.713224173E0,-2.262329340E0
7.506300771E0,1.959307671E0,-2.158232927E0,-2.227141380E0
7.526198558E0,1.522437096E0,-2.356680870E0,-1.730011463E0
7.546078035E0,1.029368401E0,-2.778915882E0,-1.225767136E0
7.565965283E0,5.589370728E-1,-2.969600916E0,-1.526412725E0
7.585853264E0,3.730163574E-1,-2.997616053E0,-2.536838293E0
7.605754672E0,5.096445084E-1,-2.798553944E0,-2.897815466E0
7.625628655E0,-2.057495117E0,-1.710653424E0,-1.727389812E0
7.645517979E0,-2.653973579E0,-1.732219934E0,-2.332092762E0
7.665406041E0,-2.148429871E0,-1.378819227E0,-1.992692947E0
7.685294265E0,-1.570911407E0,-1.038829327E0,-2.246589661E0
7.705182490E0,-1.439937592E0,-1.164364100E0,-2.766667366E0
7.725070389E0,-2.207348824E0,-1.605809927E0,-3.128808975E0
7.744958696E0,-3.163492680E0,-1.661490917E0,-2.291815758E0
7.764846880E0,-2.334496498E0,-1.901687622E0,-6.027317047E-1
7.784748166E0,-1.145593643E0,-8.099421263E-1,-5.183105469E-1
7.804634315E0,-1.843447685E-1,-1.488070250E0,5.158243179E-1
7.824524046E0,-6.567802429E-1,-1.316103697E0,1.933895111E0
7.844412677E0,-2.200314283E0,-1.031590223E0,4.319343567E0
7.864274942E0,-3.435817957E0,-1.441432357E0,4.826658249E0
7.884197753E0,-2.796658516E0,-1.713050961E0,4.691985130E0
7.904075317E0,-2.181437016E-1,-1.672808528E0,3.178696632E0
7.923964926E0,1.612489223E-1,-9.854125977E-2,1.042974472E0
7.943840455E0,7.179403305E-2,-2.299796343E-1,-6.100435257E-1
7.963728558E0,-1.266705036E0,-8.500665426E-1,-2.563993931E0
7.983616742E0,-3.224034071E0,-7.609581947E-2,-4.344642162E0
8.003504926E0,-3.198018074E0,1.215559363E0,-4.290053844E0
8.023393110E0,-2.015345097E0,1.060538054E0,-3.377389908E0
8.043281213E0,-1.242631674E-1,2.858053148E-2,-2.015049934E0
8.063169437E0,-1.279433966E-1,-5.555509329E-1,-2.306747437E-1
8.083042363E0,-1.660155177E0,2.439141273E-3,1.809453011E0
8.102940272E0,-2.186553001E0,2.233889699E-1,3.179932594E0
8.122844854E0,-1.943231583E0,6.157544255E-1,3.303603172E0
8.142737717E0,-1.660553217E0,7.906055450E-2,2.002062798E0
8.162594936E0,-1.343428612E0,-5.018620491E-1,8.496036530E-1
8.182497158E0,-1.226933479E0,-4.816813469E-1,-1.144285202E-1
8.202380338E0,-1.275095224E0,1.373418570E-1,-2.631654739E-1
8.222273445E0,-1.081425190E0,-4.125475883E-2,-1.133358955E0
8.242161426E0,-7.798880339E-1,-3.204059601E-1,-2.307289124E0
8.262061980E0,-7.508391738E-1,-3.397748470E-1,-1.861331940E0
8.281952239E0,-9.650100470E-1,7.061827183E-2,6.545734406E-2
8.301840098E0,-4.099674225E-1,-2.910724878E-1,1.216444016E0
8.321727020E0,-6.086336374E-1,-1.653437614E-1,1.412507057E0
8.341603608E0,-4.076498151E-1,-8.135628700E-2,2.428743362E0
8.361491995E0,-2.014901936E-1,-4.096269608E-2,1.679635048E0
8.381378715E0,-6.131361723E-1,4.899895191E-2,5.686731339E-1
8.401268405E0,-7.802504301E-1,2.495272160E-1,-5.532236099E-1
8.421156508E0,-1.322924197E-1,6.277172565E-1,3.370218277E-1
8.441029026E0,7.890205383E-1,7.154333591E-2,8.336963654E-1
8.460932672E0,1.190540314E0,-2.267515659E-2,9.620122910E-1
8.480820775E0,4.670553207E-1,4.160118103E-1,-3.606891632E-2
8.500709163E0,2.263045311E-2,8.679771423E-2,-2.332299232E0
8.520597428E0,-4.598679543E-1,2.653934360E-1,-2.750879288E0
8.540485531E0,7.601904869E-2,9.773814678E-2,-1.942055225E0
8.560373756E0,3.799642324E-1,-9.810364246E-2,-1.512942314E0
8.580261655E0,3.828386664E-1,-2.929811478E-1,-6.540098190E-1
8.600161558E0,1.410894990E-1,-5.749382973E-1,8.364582062E-2
8.620054869E0,3.914214969E-1,-7.203514576E-1,1.095127106E0
8.639937275E0,3.727384210E-1,-1.085078120E0,1.972089767E0
8.659814595E0,3.776475191E-1,-9.755393267E-1,2.062417984E0
8.679704528E0,2.695251107E-1,-9.481549263E-1,1.076229095E0
8.699589579E0,2.838799953E-1,-7.966985703E-1,-2.699851990E-1
8.719479025E0,3.168536425E-1,-6.124874353E-1,-1.001235962E0
8.739367412E0,5.458148718E-1,-4.091795683E-1,-6.815109253E-1
8.759268576E0,6.790503263E-1,-2.460819483E-1,-8.537673950E-2
8.779155662E0,6.671893597E-1,1.427955627E-1,1.311950684E-1
8.799043317E0,6.406238079E-1,1.925654411E-1,-3.795289993E-1
8.818932966E0,7.819311619E-1,1.865539551E-1,-5.549259186E-1
8.838821476E0,5.552593470E-1,5.256958008E-1,-4.042329788E-1
8.858708764E0,4.306006432E-1,3.451776505E-1,-1.993265152E-1
8.878596989E0,1.258355379E-1,2.259345055E-1,-7.501029968E-2
8.898466497E0,-1.816767454E-1,9.401416779E-2,-1.339273453E-1
8.918372706E0,-2.997144461E-1,2.788170576E-1,-7.388877869E-2
8.938248887E0,-6.054147482E-1,-1.512629986E-1,-2.050399780E-3
8.958135525E0,-5.149908066E-1,-3.313474655E-1,4.165182114E-1
8.978023749E0,-1.079920769E0,1.534284353E-1,8.536939621E-1
8.997913398E0,-1.287415385E0,-1.594436169E-2,6.621379852E-1
9.017801542E0,-1.550318718E0,1.286065578E-2,4.022674561E-1
9.037689807E0,-1.689557433E0,-9.945511818E-3,2.800874710E-1
9.057577015E0,-1.294499397E0,-8.626437187E-2,1.930913925E-1
9.077464507E0,-7.031096220E-1,5.886876583E-2,1.550855637E-1
9.097352691E0,-2.229572535E-1,4.644739628E-2,-2.450561523E-2
9.117240794E0,1.347638369E-1,7.237911224E-2,-2.332983017E-1
9.137129059E0,6.095393896E-1,1.013847589E-1,-2.558221817E-1
9.157017854E0,7.142335176E-1,-7.702112198E-2,-1.435832977E-1
9.176906689E0,6.740233898E-1,-2.248716354E-2,-1.861190796E-1
9.196795239E0,8.391883373E-1,1.686930656E-2,-3.149490356E-1
9.216683301E0,7.508250475E-1,-5.102455616E-2,-3.368749619E-1
9.236571200E0,4.131011963E-1,-1.183695793E-1,-1.107883453E-2
9.256453729E0,2.497892380E-1,-5.805957317E-2,-1.797361374E-1
9.276343906E0,3.173464537E-1,4.262971878E-2,-9.729766846E-1
9.296248489E0,-2.153742313E-2,2.771048546E-1,-9.897098541E-1
9.316136184E0,1.907653809E-1,2.625349760E-1,1.681060791E-1
9.336024246E0,4.544588327E-1,8.417642117E-2,1.014000893E0
9.355913489E0,6.728483438E-1,-1.113303900E-1,1.323583603E0
9.375782548E0,5.465165377E-1,-2.089245319E-1,1.155127525E0
9.395689775E0,2.080813646E-1,-1.522865295E-1,1.256302834E0
9.415577837E0,2.851314545E-1,-1.068526506E-1,-5.303173065E-1
9.435437579E0,5.375466347E-1,-1.550881863E-1,-6.258392334E-1
9.455341185E0,1.080083966E0,1.356899738E-2,3.995523453E-1
9.475229287E0,1.978404284E0,1.072853565E0,2.975658417E0
9.495117309E0,1.773782492E0,1.321207404E0,8.147239685E-1
9.515006998E0,5.044503212E-1,2.184131742E-1,-2.747383118E-1
9.534893880E0,5.844697952E-1,-5.370138884E-1,1.645240784E-1
9.554762981E0,4.079594612E-1,-1.107553244E0,-1.718605042E0
9.574670167E0,-1.718338490E0,-7.940810323E-1,-6.955676079E0
9.594571453E0,-5.997143269E0,2.975367546E0,-2.726612091E-1
9.614459515E0,-6.109253407E0,3.018124819E0,1.079850197E0
9.634332278E0,-3.428349018E0,1.153338909E0,-2.636974335E0
9.654222781E0,5.708231926E-1,-3.503311634E0,-2.281366348E0
9.674110965E0,2.651581764E0,-5.392621994E0,-2.086524963E-1
9.694001835E0,-3.551678658E-1,9.343743324E-2,3.376071930E0
9.713871709E0,4.397819042E-1,2.760070562E-1,3.186328888E0
9.733760015E0,1.567046881E0,-8.243863583E-1,3.253251076E0
9.753663580E0,2.359017849E0,-2.427848816E0,2.653514862E0
9.773551845E0,1.072978497E0,-1.513460159E0,2.140693665E0
9.793439948E0,-8.464109898E-1,-3.518556356E-1,7.161579132E-1
9.813328132E0,4.869914055E-2,-1.158972740E0,-4.097166061E-1
9.833216357E0,1.319417953E-1,-1.968373537E0,9.421768188E-1
9.853098559E0,-6.986665726E-1,-4.321672916E-1,1.016449928E0
9.872988005E0,-7.776288986E-1,1.080706835E0,-2.487908840E0
9.892875090E0,7.586860657E-2,1.047283888E0,-3.787445068E0
9.912779876E0,6.051163673E-1,-6.667609215E-1,-1.433897018E0
9.932642059E0,1.917953491E-1,-4.835219979E-1,8.634099960E-1
9.952544118E0,-5.493795872E-1,9.309356213E-1,1.194793701E0
9.972432384E0,-7.400557995E-1,1.837452173E0,-8.956699371E-1
9.992320486E0,-1.011577368E0,1.918259740E0,-2.201792240E0
1.001220835E1,-1.667454004E0,1.324615240E0,-7.335977554E-1
1.003209665E1,-1.257334709E0,1.311255455E0,1.547353745E0
1.005198724E1,-9.155824184E-1,1.507693768E0,3.835268021E-1
1.007187420E1,1.581362247E0,-1.183351040E0,-3.039417267E0
1.009177569E1,2.139431477E0,-7.324448824E-1,-4.786839485E-1
1.011166155E1,1.622702599E0,1.060581207E-2,3.552570343E-1
1.013155149E1,-4.030442238E-1,1.111333847E0,-6.776809692E-2
1.015142686E1,-5.009727478E-1,8.602474928E-1,-1.429446220E0
1.017131899E1,6.742305756E-1,2.909492850E-1,-2.300385952E0
1.019120310E1,1.200701714E0,1.377439499E-2,-2.047843456E0
1.021107696E1,1.474394798E0,-5.295362473E-1,-1.167192459E-1
1.023097947E1,-1.075851679E0,2.122992277E-1,-2.713642120E-1
1.025088112E1,-5.265092850E-1,-4.634011984E-1,2.848594666E0
1.027076886E1,-1.634948254E0,-2.099816799E0,2.877864838E0
1.029062726E1,-1.263981342E0,-1.702269435E0,1.350825310E0
1.031052667E1,-1.249976635E0,-5.328917503E-1,-3.170394897E-2
1.033042059E1,-1.737283707E0,-1.783622503E-1,-4.297552109E-1
1.035030874E1,-1.057567120E0,-2.324784994E-1,-7.802414894E-1
1.037019692E1,-5.372858047E-2,-1.321283579E-1,-3.708076477E-1
1.039008572E1,7.260003090E-1,-1.742405891E-1,2.197294235E-1
1.040998725E1,1.199979305E0,-4.029210806E-1,3.901481628E-1
1.042987246E1,8.290381432E-1,-4.176592827E-2,1.196832657E0
1.044974949E1,8.871192932E-1,1.148360968E-1,6.350831985E-1
1.046963748E1,5.100271702E-1,-1.116467714E-1,-1.117877960E-1
1.048952574E1,-6.951642036E-2,-2.709360123E-1,-4.653072357E-1
1.050941417E1,-1.634051800E-1,-2.211228609E-1,-5.071964264E-1
1.052930231E1,-2.702655792E-1,4.409884214E-1,7.699012756E-2
1.054919042E1,-5.085284710E-1,2.457380295E-2,1.897306442E-1
1.056907913E1,-2.738714218E-1,-3.710393906E-1,2.758884430E-1
1.058897915E1,-5.561187267E-1,8.091819286E-2,4.293203354E-1
1.060886831E1,2.564792633E-1,1.347886324E-1,3.804206848E-2
1.062874303E1,6.558537483E-2,5.149536133E-1,1.308631897E-1
1.064863585E1,1.052374840E-1,5.166242123E-1,1.822252274E-1
1.066851940E1,3.917765617E-1,-1.101924181E-1,-2.300367355E-1
1.068840738E1,2.178282738E-1,-2.922463417E-2,-2.788238525E-1
1.070829552E1,2.396533489E-1,-7.816255093E-2,-4.510383606E-1
1.072818391E1,2.912449837E-1,-6.698477268E-2,-4.719963074E-1
1.074808174E1,1.712615490E-1,-4.134213924E-2,-2.314138412E-1
1.076797163E1,8.089184761E-2,-9.357392788E-2,1.152219772E-1
1.078786079E1,1.124656200E-1,-2.032183409E-1,3.025827408E-1
1.080774796E1,5.334193707E-1,-6.132439375E-1,-4.099712372E-1
1.082763602E1,-1.077809334E-1,3.477442265E-2,1.572513580E-1
1.084752376E1,-2.594096661E-1,1.042160988E-1,1.494026184E-1
1.086740868E1,-1.681020260E-1,-6.102347374E-2,5.128192902E-2
1.088729980E1,-1.643595695E-1,3.864789009E-2,-9.555816650E-3
1.090718827E1,-2.681665421E-1,1.103911400E-1,6.145000458E-2
1.092707828E1,-2.397606373E-1,3.871536255E-2,2.402305603E-3
1.094693835E1,-2.515993118E-1,1.253869534E-1,2.218532562E-1
1.096684171E1,-1.315174103E-1,2.578842640E-2,1.726369858E-1
1.098673002E1,-1.534960270E-1,3.036296368E-2,-9.571838379E-2
1.100661836E1,-2.121238708E-1,1.288830042E-1,1.290855408E-1
1.102650634E1,-2.201349735E-1,1.279042959E-1,-1.538391113E-1
1.104639457E1,-1.321554184E-1,9.571003914E-2,-1.454668045E-1
1.106628259E1,-1.590180397E-2,5.768251419E-2,-1.802291870E-1
1.108618489E1,2.101254463E-2,-1.609802246E-2,3.677368164E-3
1.110604736E1,-1.314895153E-1,8.904814720E-3,1.182527542E-1
1.112595976E1,-1.042311192E-1,-2.209579945E-2,2.353754044E-1
1.114583968E1,-4.009509087E-2,-2.406716347E-3,1.206588745E-1
1.116572327E1,8.680605888E-2,1.966500282E-2,-6.254196167E-2
1.118561178E1,1.883661747E-1,2.219283581E-2,-1.629295349E-1
1.120549988E1,3.495883942E-2,6.576776505E-3,-1.107978821E-2
1.122538782E1,-3.194284439E-2,-4.658353329E-2,-3.887844086E-2
1.124526176E1,-1.231694221E-1,-9.282648563E-2,-3.097915649E-2
1.126514002E1,-6.858730316E-2,-7.976889610E-2,1.813640594E-1
1.128505107E1,1.413953304E-1,-7.470750809E-2,1.760435104E-1
1.130494072E1,1.638185978E-1,-3.738629818E-2,-1.143455505E-1
1.132482748E1,1.731450558E-1,6.965494156E-2,-4.553565979E-1
1.134471705E1,1.832344532E-1,9.869074821E-2,-4.933490753E-1
1.136461801E1,8.944964409E-2,6.613337994E-2,6.952285767E-3
1.138447881E1,3.059005737E-2,2.001798153E-2,1.765470505E-1
1.140439421E1,-4.995918274E-2,9.698867798E-3,-2.976989746E-2
1.142428244E1,-2.282357216E-2,1.441121101E-2,-1.358547211E-1
1.144415772E1,-3.798103333E-2,5.193781853E-2,-1.123313904E-1
1.146404660E1,-6.769943237E-2,4.326307774E-2,-7.399368286E-2
1.148393405E1,-7.361316681E-2,-2.970814705E-3,1.611061096E-1
1.150382219E1,-3.911018372E-2,-9.627223015E-3,1.034278870E-1
1.152371030E1,-4.167127609E-2,5.901181698E-2,-2.363595963E-1
1.154359860E1,1.739764214E-2,4.603397846E-2,-2.660741806E-1
1.156348683E1,-3.397774696E-2,2.727019787E-2,1.566123962E-2
1.158338799E1,-1.025257111E-1,-4.124379158E-2,2.423763275E-1
1.160325750E1,-1.374676228E-1,-6.459987164E-2,2.388315201E-1
1.162316102E1,-1.468348503E-1,-3.613781929E-2,2.243518829E-2
1.164302382E1,-4.674077034E-2,3.966701031E-2,-1.455783844E-1
1.166291228E1,8.156132698E-2,5.327260494E-2,-1.464452744E-1
1.168281601E1,1.274425983E-1,5.052292347E-2,-1.256456375E-1
1.170270387E1,1.304144859E-1,2.420306206E-2,-2.522325516E-1
1.172259075E1,1.334795952E-1,4.657995701E-2,-1.821088791E-1
1.174247894E1,1.057684422E-1,3.888380527E-2,-2.151823044E-1
1.176237969E1,-2.855467796E-2,-3.136014938E-2,-1.232757568E-1
1.178226808E1,-2.500545979E-1,-4.198205471E-2,3.000173569E-1
1.180215602E1,-2.618746758E-1,-1.117507219E-1,4.935379028E-1
1.182204368E1,-1.949715614E-1,-8.125412464E-2,2.837162018E-1
1.184193215E1,-3.242373466E-2,-3.506505489E-2,-6.378173828E-2
1.186182241E1,4.461479187E-2,3.191077709E-2,-2.018070221E-1
1.188171010E1,6.612706184E-2,3.521549702E-2,-1.514911652E-2
1.190159714E1,2.761507034E-2,1.966834068E-2,2.223396301E-2
1.192148749E1,-1.573276520E-2,-2.776503563E-3,-1.500787735E-1
1.194136180E1,6.560349464E-2,-2.105486393E-2,-5.440711975E-2
1.196125022E1,1.030249596E-1,-1.755547523E-2,5.074596405E-2
1.198113845E1,3.728437424E-2,1.082777977E-3,3.620147705E-2
1.200102497E1,-3.638696671E-2,2.225232124E-2,-8.807754517E-2
1.202091539E1,8.142709732E-3,1.546168327E-2,-1.440143585E-2
1.204081073E1,3.088784218E-2,3.216266632E-3,-8.486270905E-2
1.206067568E1,-3.433775902E-2,1.534211636E-2,-2.092723846E-1
1.208059190E1,-2.893018723E-2,-2.036035061E-2,-4.553794861E-2
1.210048049E1,1.502442360E-2,-5.669403076E-2,2.171335220E-1
1.212037279E1,4.581189156E-2,-6.911003590E-2,2.290534973E-1
1.214025690E1,-5.741667747E-2,-3.103709221E-2,-2.987575531E-2
1.216011998E1,-7.495284081E-2,1.122236252E-3,-1.785507202E-1
1.218001895E1,3.405547142E-2,9.773612022E-3,-1.193809509E-1
1.219990819E1,8.931612968E-2,3.398537636E-3,-1.100349426E-2
1.221979483E1,1.208238602E-1,-1.848649979E-2,6.122684479E-2
1.223968431E1,1.005721092E-2,3.022480011E-2,1.020526886E-2
1.225958536E1,-1.015725136E-1,1.308834553E-2,-3.006277084E-1
1.227946068E1,-1.075847149E-1,3.628528118E-2,-1.995458603E-1
1.229932925E1,-2.072238922E-2,-1.304757595E-2,9.841632843E-2
1.231922289E1,4.735946655E-3,-2.593374252E-2,2.279453278E-1
1.233912556E1,-1.637315750E-2,-4.052996635E-3,8.736324310E-2
1.235901313E1,1.634883881E-2,2.962088585E-2,-1.122007370E-1
1.237891523E1,1.062219143E-1,3.689694405E-2,-1.702060699E-1
1.239880313E1,1.000483036E-1,2.405309677E-2,-9.106922150E-2
1.241868904E1,-4.092645645E-2,-1.608884335E-2,1.092281342E-1
1.243856628E1,-7.712841034E-2,-6.348395348E-2,6.742668152E-2
1.245845450E1,1.168203354E-2,-4.175746441E-2,-1.653041840E-1
1.247834098E1,1.386950016E-1,-7.255434990E-3,-1.476039886E-1
1.249823071E1,1.192078590E-1,-3.276431561E-2,9.104728699E-3
1.251811885E1,-6.360054016E-2,-6.785833836E-2,1.592388153E-1
1.253800838E1,-2.033407688E-1,-7.004296780E-2,1.229658127E-1
1.255789501E1,-1.089577675E-1,-3.593850136E-2,4.156970978E-2
1.257779471E1,8.672046661E-2,1.119148731E-2,-9.215545654E-2
1.259768241E1,1.303789616E-1,9.179353714E-3,-6.542873383E-2
1.261757051E1,1.084442139E-1,-1.376378536E-2,-2.513694763E-2
1.263745922E1,-1.279115677E-3,-1.779282093E-2,-7.134056091E-2
1.265733447E1,-4.845952988E-2,-2.309083939E-3,-6.207942963E-2
1.267722269E1,-2.435922623E-2,1.066064835E-2,3.499126434E-2
1.269711076E1,-8.377504349E-2,4.974007607E-3,-5.561637878E-2
1.271700309E1,-1.231749058E-1,-2.482473850E-2,-6.739330292E-2
1.273688879E1,-6.585431099E-2,-2.798926830E-2,8.083152771E-2
1.275676347E1,-3.717803955E-2,2.755117416E-2,1.283168793E-1
1.277669364E1,7.295131683E-3,4.705679417E-2,1.107091904E-1
1.279655184E1,9.103536606E-3,1.420259476E-2,2.008438110E-3
1.281645439E1,-2.734184265E-2,-1.805269718E-2,-1.486577988E-1
1.283634278E1,-2.340984344E-2,-4.562866688E-2,-8.789443970E-2
1.285623108E1,1.756525040E-2,-3.145980835E-2,-5.321025848E-2
1.287611780E1,6.804442406E-2,-2.029180527E-2,6.672573090E-2
1.289600737E1,7.375621796E-2,-3.023159504E-2,6.996822357E-2
1.291589510E1,8.161783218E-3,-3.977358341E-2,5.148887634E-3
1.293577063E1,-6.442070007E-3,-1.832604408E-2,-2.639198303E-2
1.295564311E1,4.991054535E-2,-1.211118698E-2,-7.064819336E-2
1.297553138E1,7.751297951E-2,-1.281142235E-2,-5.492877960E-2
1.299543510E1,5.932068825E-2,2.626562119E-2,-7.039737701E-2
1.301532284E1,3.591179848E-2,7.515847683E-2,-1.065530777E-1
1.303521115E1,1.343250275E-3,7.798993587E-2,-3.280544281E-2
1.305509836E1,-3.515458107E-2,3.448474407E-2,-8.086967468E-2
1.307498845E1,-1.030762196E-1,-2.354371548E-2,-8.062458038E-2
1.309488807E1,-1.676850319E-1,-4.418516159E-2,6.480216980E-2
1.311477638E1,-1.311569214E-1,-1.641094685E-2,1.374807358E-1
1.313464771E1,-5.893325806E-2,2.475667000E-2,1.055774689E-1
1.315454001E1,3.329443932E-2,3.040647507E-2,2.394866943E-2
1.317442160E1,1.287834644E-1,-3.472900391E-2,1.587867737E-2
1.319431638E1,1.138076782E-1,-3.736305237E-2,-1.324558258E-2
1.321420460E1,-3.568410873E-2,-2.084529400E-2,-1.086053848E-1
1.323409169E1,-4.456090927E-2,-4.663038254E-2,-3.058271408E-1
1.325399460E1,8.232426643E-2,3.372550011E-3,-7.962198257E-1
1.327385520E1,1.320378780E-1,8.557236195E-2,4.064903259E-1
1.329377052E1,7.031774521E-2,-1.456565857E-1,8.327140808E-1
1.331365634E1,-2.121851444E-1,-7.352602482E-2,2.615451813E-1
1.333354668E1,-3.406853676E-1,3.137302399E-2,-4.541540146E-1
1.335345912E1,-3.474357128E-1,1.113960743E-1,-5.730028152E-1
1.337330466E1,-2.128129005E-1,1.926323175E-1,1.015787125E-1
1.339319285E1,2.538514137E-1,9.241759777E-2,1.241752625E0
1.341308087E1,5.832784176E-1,-6.980955601E-2,1.638137817E0
1.343295928E1,2.267696857E-1,-1.796621084E-1,7.038536072E-1
1.345285886E1,-2.886047363E-1,-1.186484098E-1,-1.020866394E0
1.347275075E1,-5.027720928E-1,2.143657207E-2,-2.026856899E0
1.349263747E1,-2.337033749E-1,8.962857723E-2,-1.657667160E0
1.351252557E1,2.065751553E-1,1.563028097E-1,-5.258712769E-1
1.353241388E1,4.049248695E-1,1.300498247E-1,3.922863007E-1
1.355230202E1,2.696354389E-1,3.269088268E-2,6.727771759E-1
1.357219020E1,-7.001471519E-2,-1.094614267E-1,6.029005051E-1
1.359207945E1,-2.963702679E-1,-1.869868040E-1,2.503185272E-1
1.361196783E1,-3.363211155E-1,-2.022536993E-1,-4.779434204E-2
1.363185626E1,-2.065050602E-1,-1.709079742E-1,-4.688072205E-2
1.365174400E1,2.609467506E-2,-1.078284979E-1,-3.878116608E-2
1.367163239E1,7.934975624E-2,3.367149830E-2,1.439046860E-1
1.369151915E1,1.211881638E-1,3.941106796E-2,8.617305756E-2
1.371140859E1,1.119117737E-1,4.177153111E-2,-9.663391113E-2
1.373129682E1,1.186037064E-2,5.241310596E-2,-1.251010895E-1
1.375118476E1,-1.147525311E-1,5.192101002E-2,-1.273078918E-1
1.377108389E1,-1.650147438E-1,2.843284607E-2,3.589439392E-2
1.379097464E1,-6.207895279E-2,-2.879381180E-3,1.537685394E-1
1.381086249E1,-6.528258324E-2,-1.275813580E-2,1.729974747E-1
1.383073660E1,-4.055047035E-2,-2.775883675E-2,3.674697876E-2
1.385063447E1,5.639767647E-2,-1.717662811E-2,-1.745252609E-1
1.387052664E1,1.305842400E-1,-1.633667946E-2,-1.393194199E-1
1.389041332E1,2.242798805E-1,7.482767105E-4,2.704524994E-2
1.391030288E1,3.747212887E-1,-8.392930031E-3,3.914489746E-1
1.393019107E1,5.589263439E-1,-9.567701817E-2,5.910816193E-1
1.395006619E1,5.665130615E-1,-9.995758533E-2,4.102067947E-1
1.396995474E1,4.246230125E-1,-1.040085554E-1,-1.444149017E-2
1.398984301E1,2.230784893E-1,-1.280291080E-1,-3.704977036E-1
1.400973115E1,-8.856534958E-3,-8.063864708E-2,-9.124565125E-1
1.402961897E1,-2.109971046E-1,5.723476410E-2,-1.408456326E0
1.404950870E1,-2.070019245E-1,2.025327682E-1,-1.288872719E0
1.406939570E1,6.766319275E-3,1.956574917E-1,-5.424690247E-1
1.408927754E1,1.610324383E-1,1.223578453E-1,2.969417572E-1
1.410916593E1,-4.458355904E-2,6.029486656E-3,6.904726028E-1
1.412907084E1,-4.067244530E-1,-7.700717449E-2,4.921665192E-1
1.414896081E1,-6.934909821E-1,-7.854402065E-2,1.812095642E-1
1.416883662E1,-8.138892651E-1,-5.031979084E-2,1.438522339E-1
1.418872355E1,-7.200710773E-1,8.970975876E-3,2.958326340E-1
1.420861283E1,-5.301332474E-1,9.007728100E-2,4.778699875E-1
1.422850077E1,-3.626611233E-1,1.661200523E-1,4.722967148E-1
1.424838891E1,-2.466816902E-1,2.085760832E-1,1.522550583E-1
1.426827604E1,-2.703526020E-1,2.085889578E-1,-7.685565948E-2
1.428816540E1,-1.924979687E-1,1.546201706E-1,-3.988170624E-2
1.430805408E1,-9.230446815E-2,7.325303555E-2,8.619976044E-2
1.432794153E1,-6.817913055E-2,-6.932258606E-3,1.226959229E-1
1.434784114E1,-9.217262268E-4,-5.928826332E-2,1.745986938E-2
1.436772933E1,1.328921318E-1,-7.437825203E-2,-1.221342087E-1
1.438761694E1,2.306208611E-1,-7.585239410E-2,-1.250343323E-1
1.440750562E1,3.049755096E-1,-8.216261864E-2,-8.983135223E-2
1.442737744E1,3.259441853E-1,-1.283510923E-1,-7.972717285E-3
1.444726937E1,2.972486019E-1,-1.217091084E-1,-4.618453979E-2
1.446715759E1,2.749018669E-1,-1.063581705E-1,-1.865940094E-1
1.448704676E1,3.407299519E-1,-6.972908974E-2,-3.924827576E-1
1.450693518E1,4.058470726E-1,-2.739191055E-2,-3.828296661E-1
1.452682353E1,3.532495499E-1,-2.876508236E-2,-1.276235580E-1
1.454671155E1,2.014861107E-1,-5.949616432E-2,6.837463379E-2
1.456659974E1,4.457354546E-2,-6.362104416E-2,8.581924438E-2
1.458650139E1,-7.609605789E-3,-5.641961098E-2,6.280326843E-2
1.460638428E1,-6.675481796E-3,-3.863251209E-2,1.276760101E-1
1.462627686E1,8.021950722E-2,-2.563405037E-2,2.004098892E-1
1.464616513E1,-4.867005348E-2,-3.527283669E-3,1.508693695E-1
1.466603895E1,-1.960198879E-1,-8.974194527E-3,-7.940864563E-2
1.468592872E1,-2.565619946E-1,1.402962208E-2,-3.142929077E-1
1.470581662E1,-1.978847980E-1,5.582201481E-2,-3.491401672E-1
1.472570496E1,-9.024190903E-2,7.643878460E-2,-1.965618134E-2
1.474559323E1,-7.510924339E-2,6.976962090E-2,2.736625671E-1
1.476549407E1,-1.144673824E-1,4.946994781E-2,1.934337616E-1
1.478538014E1,-2.505609989E-1,2.438402176E-2,1.805496216E-2
1.480525156E1,-2.753210068E-1,-7.365942001E-4,-3.467369080E-2
1.482512534E1,-1.437962055E-1,-4.123210907E-3,-3.019714355E-2
1.484504489E1,-8.643507957E-2,5.081653595E-3,1.754407883E-1
1.486493515E1,-6.342005730E-2,4.582405090E-3,1.627683640E-1
1.488482346E1,8.545351028E-2,-1.339995861E-2,-9.552288055E-2
1.490469825E1,2.387354374E-1,-4.064130783E-2,-7.214355469E-2
1.492458656E1,9.301757812E-2,-9.526252747E-3,-9.188652039E-3
1.494447454E1,-1.801490784E-2,2.809762955E-4,-9.972858429E-2
1.496436272E1,-3.165268898E-2,-1.465153694E-2,-1.757488251E-1
1.498425107E1,-1.872301102E-3,-2.346754074E-3,-1.319952011E-1
1.500413918E1,9.900879860E-2,-5.943298340E-3,-2.280235291E-3
1.502402585E1,1.288363934E-1,-3.187489510E-2,6.922054291E-2
1.504391554E1,5.556583405E-2,-4.541325569E-2,-1.213169098E-2
1.506380360E1,4.465103149E-3,-3.436875343E-2,-1.012220383E-1
1.508368613E1,-1.624274254E-2,-6.143331528E-3,-4.552936554E-2
1.510359991E1,-4.350399971E-2,3.545296192E-2,5.368900299E-2
1.512348114E1,-4.948782921E-2,2.520895004E-2,5.151557922E-2
1.514336826E1,-1.012973785E-1,-3.425049782E-2,-1.881313324E-2
1.516324314E1,-1.078879833E-1,-8.905982971E-2,5.104827881E-2
1.518311717E1,1.811122894E-2,-8.603835106E-2,6.169891357E-2
1.520300616E1,1.199789047E-1,-7.961964607E-2,5.458927155E-2
1.522289508E1,1.788084507E-1,-5.374038219E-2,-4.779911041E-2
1.524279702E1,1.363809109E-1,-4.652202129E-2,-3.916263580E-2
1.526269680E1,1.016619205E-1,-2.756154537E-2,-1.119050980E-1
1.528258458E1,1.099717617E-1,3.261923790E-3,-2.605743408E-1
1.530247260E1,1.181364059E-1,5.112850666E-2,-2.164402008E-1
1.532236131E1,8.109045029E-2,7.326698303E-2,-1.054401398E-1
1.534224954E1,5.636024475E-2,5.097424984E-2,-6.804943085E-2
1.536213743E1,-4.804921150E-2,8.788275719E-2,-9.632110596E-2
1.538201976E1,-2.087788582E-1,1.076357365E-1,2.200889587E-2
1.540191563E1,-2.612204552E-1,8.581769466E-2,6.490230560E-2
1.542180215E1,-1.615974903E-1,9.472799301E-2,1.344394684E-2
1.544166344E1,-1.599252224E-1,1.229104996E-1,5.322074890E-2
1.546156708E1,-1.974043846E-1,8.931088448E-2,1.368074417E-1
1.548143659E1,-1.588535309E-1,1.087021828E-2,1.076536179E-1
1.550134345E1,-8.478736877E-2,-4.052448273E-2,-1.795578003E-2
1.552123156E1,-8.611273766E-2,-7.942616940E-2,4.247570038E-2
1.554111970E1,-7.484173775E-2,-8.918821812E-2,7.481193542E-2
1.556100829E1,5.272817612E-2,-8.188176155E-2,-3.353786469E-2
1.558089599E1,1.279940605E-1,-4.084420204E-2,-7.405948639E-2
1.560078445E1,9.029006958E-2,-4.355096817E-2,2.570438385E-2
1.562067239E1,6.597161293E-2,-5.413568020E-2,2.762413025E-2
1.564056054E1,5.167579651E-2,-6.174528599E-2,-1.021089554E-1
1.566044868E1,2.842116356E-2,-2.721416950E-2,-1.522617340E-1
1.568033666E1,5.960631371E-2,-1.776909828E-2,-6.573295593E-2
1.570022501E1,1.142244339E-1,-1.620399952E-2,-6.090164185E-3
1.572011303E1,6.187081337E-2,-2.528858185E-2,5.454063416E-3
1.574000093E1,-2.357292175E-2,-3.360641003E-2,-2.075195312E-3
1.575990250E1,6.696939468E-3,-3.515625000E-2,-1.832389832E-2
1.577979056E1,8.239507675E-3,-1.146352291E-2,-6.020736694E-2
1.579967919E1,-6.998705864E-2,1.838970184E-2,1.503181458E-2
1.581956713E1,-2.812695503E-2,2.648711205E-3,-1.627254486E-2
1.583943632E1,-3.200006485E-2,-1.640439034E-3,-1.393890381E-2
1.585932438E1,-8.831405640E-2,-1.321911812E-3,6.295681000E-2
1.587923222E1,-9.605073929E-2,-3.094434738E-2,8.419132233E-2
1.589910083E1,-5.438971519E-2,6.525993347E-3,-2.382850647E-2
1.591901037E1,-8.382010460E-2,2.602803707E-2,1.075458527E-2
1.593888289E1,-2.189326286E-2,1.539254189E-2,-2.941703796E-2
1.595877702E1,-2.474331856E-2,9.981632233E-3,-9.589195251E-2
1.597865942E1,-5.310440063E-2,-8.815288544E-3,-3.623962402E-3
1.599854602E1,1.274013519E-2,-1.535391808E-2,4.768562317E-2
1.601843563E1,1.659893990E-2,6.057024002E-4,5.562400818E-2
1.603832373E1,-1.247859001E-2,9.840846062E-3,3.290176392E-3
1.605821192E1,4.435563087E-2,1.285076141E-4,-1.236743927E-1
1.607811222E1,1.013040543E-3,9.107470512E-3,-1.043386459E-1
1.609799911E1,-4.782247543E-2,2.612233162E-3,-3.814697266E-3
1.611788737E1,2.427577972E-3,-3.019928932E-3,-1.161003113E-2
1.613777462E1,-1.734113693E-2,-1.810300350E-2,5.108356476E-2
1.615766362E1,-9.260892868E-3,-3.531587124E-2,2.709770203E-2
1.617753964E1,4.266142845E-2,4.823088646E-3,-7.988739014E-2
1.619741386E1,5.305147171E-2,7.310271263E-3,-9.829139709E-2
1.621730192E1,-7.486343384E-5,1.459002495E-3,-3.437614441E-2
1.623718999E1,1.223278046E-2,4.987835884E-3,-6.634998322E-2
1.625709192E1,-1.190423965E-2,4.590988159E-3,-4.286289215E-2
1.627698178E1,-3.536415100E-2,9.068965912E-3,-5.216598511E-4
1.629686968E1,-7.771492004E-3,2.583277225E-2,-1.442813873E-2
1.631675680E1,3.582239151E-3,2.425861359E-2,-3.409385681E-3
1.633664600E1,1.762628555E-3,1.854360104E-2,-1.372432709E-2
1.635654168E1,-5.016446114E-2,1.922786236E-2,-1.070404053E-2
1.637643535E1,-8.343935013E-2,-1.130676270E-2,-3.927230835E-3
1.639632378E1,-7.230305672E-2,-1.727652550E-2,7.858276367E-4
1.641621192E1,-3.683948517E-2,-1.505720615E-2,2.210998535E-2
1.643607162E1,4.915332794E-2,-3.984570503E-3,-2.503395081E-3
1.645597535E1,5.518817902E-2,-1.505374908E-3,-3.919696808E-2
1.647586341E1,5.145883560E-2,7.099866867E-3,-1.077280045E-1
1.649575160E1,7.433843613E-2,1.474380493E-3,-8.582401276E-2
1.651563978E1,-1.019191742E-2,-4.536032677E-3,1.730918884E-3
1.653552788E1,-4.396939278E-2,-1.041388512E-2,8.611679077E-3
1.655541615E1,-2.205109596E-2,-6.686806679E-3,-4.063892365E-2
1.657531565E1,-5.477809906E-2,-4.826068878E-3,1.491069794E-2
1.659520558E1,-8.498167992E-2,-7.775306702E-3,7.798004150E-2
1.661509234E1,-3.596091270E-2,-1.477897167E-2,3.987979889E-2
1.663498170E1,1.099729538E-2,3.832221031E-3,-6.939792633E-2
1.665486968E1,-2.664637566E-2,1.244938374E-2,-1.044960022E-1
1.667474481E1,-1.547574997E-2,1.271474361E-2,-4.843997955E-2
1.669463307E1,2.151775360E-2,2.184510231E-3,2.720260620E-2
1.671452130E1,-2.779006958E-2,-1.738405228E-2,8.774280548E-2
1.673440936E1,-7.173323631E-2,-1.007378101E-2,-1.832389832E-2
1.675429758E1,-9.550309181E-2,3.352046013E-3,-6.934547424E-2
1.677419944E1,-8.491444588E-2,-7.078886032E-3,-3.727054596E-2
1.679408486E1,-7.384109497E-2,-1.938664913E-2,-9.046840668E-2
1.681395632E1,-7.421636581E-2,-1.518225670E-2,-2.692127228E-2
1.683386114E1,-6.579589844E-2,4.263877869E-3,2.533435822E-2
1.685373273E1,-9.354853630E-2,3.863179684E-2,1.246271133E-1
1.687362665E1,-1.127381325E-1,6.387281418E-2,1.541776657E-1
1.689351312E1,-1.080572605E-1,6.464111805E-2,8.916187286E-2
1.691338153E1,-2.496790886E-2,7.035982609E-2,-7.610893250E-2
1.693327842E1,9.270238876E-2,3.971552849E-2,-2.026157379E-1
1.695318126E1,2.231006622E-1,2.880859375E-2,-2.306489944E-1
1.697305365E1,2.944874763E-1,-8.887887001E-3,-1.183185577E-1
1.699295238E1,2.778093815E-1,-4.548645020E-2,-5.369186401E-2
1.701283608E1,1.529991627E-1,-4.224145412E-2,-5.397510529E-2
1.703273184E1,5.871605873E-2,-6.969070435E-2,-5.847167969E-2
1.705261941E1,6.098794937E-2,-7.337689400E-2,-6.814384460E-2
1.707251907E1,8.578538895E-2,-7.200527191E-2,-2.790546417E-2
1.709240717E1,1.587104797E-1,-5.362939835E-2,-6.288814545E-2
1.711228327E1,2.047719955E-1,-3.782534599E-2,-5.932998657E-2
1.713215709E1,1.964383125E-1,-3.270339966E-2,-3.708362579E-2
1.715206102E1,1.467952728E-1,-5.720138550E-2,-1.097393036E-2
1.717194912E1,9.879565239E-2,-8.032202721E-2,2.404117584E-2
1.719183719E1,4.194784164E-2,-7.116401196E-2,-3.731727600E-3
1.721172382E1,3.583335876E-2,-4.335403442E-2,-8.817863464E-2
1.723161360E1,-3.496837616E-2,1.694917679E-3,-6.879615784E-2
1.725150158E1,-8.946084976E-2,1.318228245E-2,4.378032684E-2
1.727142353E1,-1.691205502E-1,-8.371949196E-3,1.554679871E-1
1.729129080E1,-2.266812325E-1,-1.670658588E-2,1.745195389E-1
1.731118586E1,-2.403385639E-1,-2.338528633E-2,1.385354996E-1
1.733106522E1,-2.024044991E-1,-3.302729130E-2,7.471275330E-2
1.735095564E1,-1.324551105E-1,-1.846623421E-2,-1.016426086E-2
1.737084386E1,-8.338856697E-2,9.010195732E-3,-8.257865906E-2
1.739070532E1,-6.493854523E-2,2.912080288E-2,-7.401752472E-2
1.741061787E1,-3.411865234E-2,1.075375080E-2,-2.363586426E-2
1.743050842E1,-6.080484390E-2,5.909919739E-3,3.608989716E-2
1.745038346E1,-9.214878082E-2,-1.026618481E-2,7.344913483E-2
1.747025594E1,-9.427714348E-2,-1.740980148E-2,2.757167816E-2
1.749014424E1,-1.125197411E-1,9.514093399E-4,-1.543617249E-2
1.751004830E1,-9.713101387E-2,3.473293781E-2,-6.244373322E-2
1.752993632E1,-7.313275337E-2,3.894639015E-2,-4.277992249E-2
1.754982426E1,-7.078623772E-2,4.303932190E-2,-1.502418518E-2
1.756971240E1,-9.393191338E-2,5.178451538E-2,-4.281044006E-2
1.758960026E1,-9.441995621E-2,5.206811428E-2,-7.180690765E-2
1.760948881E1,-6.750059128E-2,2.800989151E-2,-4.036140442E-2
1.762938940E1,-5.715274811E-2,1.915788651E-2,-1.329421997E-3
1.764927861E1,-9.459877014E-2,8.237719536E-3,7.947158813E-2
1.766915336E1,-9.121084213E-2,1.694440842E-3,1.153564453E-1
1.768903984E1,-5.584239960E-2,1.051342487E-2,2.956771851E-2
1.770892969E1,-4.737854004E-3,2.568387985E-2,-8.983898163E-2
1.772881787E1,3.527855873E-2,3.744888306E-2,-1.095771790E-1
1.774870589E1,4.526209831E-2,6.052565575E-2,-6.006145477E-2
1.776860820E1,8.771872520E-2,4.855942726E-2,-1.028203964E-1
1.778849284E1,9.521818161E-2,2.711641788E-2,-1.096410751E-1
1.780838160E1,7.778525352E-2,-1.930129528E-2,-1.056413651E-1
1.782826950E1,6.999874115E-2,-5.617022514E-2,-8.482837677E-2
1.784815788E1,8.032560349E-2,-6.775724888E-2,-1.771450043E-2
1.786802894E1,1.313014030E-1,-7.037472725E-2,3.698253632E-2
1.788793417E1,1.601097584E-1,-6.011927128E-2,4.186630249E-4
1.790782260E1,1.068959236E-1,-3.033852577E-2,-9.540081024E-2
1.792771013E1,3.846240044E-2,-2.709639072E-2,-1.395540237E-1
1.794758656E1,1.139688492E-2,-1.048302650E-2,-5.867767334E-2
1.796746920E1,-2.102589607E-2,1.842546463E-2,8.053493500E-2
1.798736244E1,-6.036520004E-3,1.413345337E-2,7.798099518E-2
1.800725054E1,-1.553082466E-2,-7.437229156E-3,7.629394531E-5
1.802713884E1,1.663923264E-3,-3.218734264E-2,-1.102571487E-1
1.804702703E1,2.853870392E-3,-9.503841400E-3,-1.386260986E-1
1.806692892E1,2.530741692E-2,3.072607517E-2,-7.171535492E-2
1.808681719E1,-7.857799530E-3,5.656564236E-2,6.430053711E-2
1.810670916E1,-3.917288780E-2,4.565012455E-2,1.026220322E-1
1.812659413E1,-6.445002556E-2,-6.018280983E-3,7.148361206E-2
1.814647072E1,-6.706213951E-2,-2.911400795E-2,-7.225990295E-3
1.816635699E1,-4.917883873E-2,-1.951515675E-2,-6.581497192E-2
1.818624542E1,-6.007432938E-3,1.007497311E-2,-4.989337921E-2
1.820613344E1,2.030205727E-2,3.752183914E-2,-2.413749695E-2
1.822602040E1,-2.923250198E-3,2.872872353E-2,3.025150299E-2
1.824590244E1,-3.587722778E-2,-8.870720863E-3,9.121227264E-2
1.826579787E1,-5.256724358E-2,-7.003307343E-2,7.854080200E-2
1.828569944E1,-8.816766739E-2,-9.715425968E-2,5.943202972E-2
1.830558526E1,-2.794265747E-3,-1.096439362E-1,1.795864105E-2
1.832547552E1,1.057279110E-1,-7.465147972E-2,-1.100540161E-3
1.834534495E1,1.528162956E-1,-3.101646900E-2,-1.880455017E-2
1.836525014E1,1.486463547E-1,-3.810775280E-2,-4.574584961E-2
1.838513963E1,7.490968704E-2,-7.623481750E-2,-9.496879578E-2
1.840502639E1,3.114867210E-2,-7.829308510E-2,-1.638307571E-1
1.842491660E1,2.638030052E-2,-3.077030182E-2,-1.175594330E-1
1.844477740E1,6.349563599E-2,2.415561676E-2,-7.505226135E-2
1.846466437E1,2.387285233E-2,6.279969215E-2,-2.800464630E-2
1.848456765E1,-8.223080635E-2,5.068337917E-2,6.101799011E-2
1.850445583E1,-1.647560596E-1,1.267302036E-2,9.721565247E-2
1.852434402E1,-2.164783478E-1,-1.440465450E-2,4.369640350E-2
1.854423216E1,-2.107872963E-1,-1.479029655E-3,-1.014900208E-2
1.856412030E1,-1.647560596E-1,1.659822464E-2,4.090118408E-2
1.858402090E1,-1.162004471E-1,2.219212055E-2,1.055059433E-1
1.860391002E1,-9.906315804E-2,1.445209980E-2,1.160078049E-1
1.862379621E1,-1.000800133E-1,1.144802570E-2,3.019237518E-2
1.864368630E1,-2.305936813E-2,3.417730331E-3,-1.355066299E-1
1.866355561E1,6.800127029E-2,1.585292816E-2,-2.379302979E-1
1.868344806E1,1.136379242E-1,3.239083290E-2,-1.948938370E-1
1.870333747E1,1.074457169E-1,3.976833820E-2,-3.588008881E-2
1.872322569E1,4.793000221E-2,3.684890270E-2,8.820152283E-2
1.874309829E1,5.804061890E-3,1.736032963E-2,5.912971497E-2
1.876298758E1,-3.902173042E-2,2.562344074E-2,-1.124925613E-1
1.878287332E1,-6.502270699E-2,6.892049313E-2,-2.018327713E-1
1.880278978E1,-4.138302803E-2,1.008197069E-1,-1.325407028E-1
1.882264680E1,-4.850554466E-2,9.889233112E-2,3.768062592E-2
1.884255325E1,-4.967451096E-2,5.109155178E-2,1.544141769E-1
1.886244168E1,-4.425597191E-2,-3.500115871E-2,8.560276031E-2
1.888231640E1,-2.750349045E-2,-7.001399994E-2,-6.639194489E-2
1.890221801E1,2.030253410E-2,-3.295207024E-2,-8.798599243E-2
1.892210591E1,4.678416252E-2,4.859113693E-2,-6.287288666E-2
1.894199442E1,5.411744118E-2,1.050573587E-1,-1.089000702E-2
1.896186832E1,1.157948971E-1,1.447153091E-2,-4.507637024E-2
1.898177172E1,1.694335938E-1,-1.075603962E-1,-1.812047958E-1
1.900165990E1,2.052128315E-1,-1.660094261E-1,-2.271060944E-1
1.902154101E1,2.182071209E-1,-1.092064381E-1,-8.338546753E-2
1.904143644E1,1.374826431E-1,-7.426500320E-3,6.968212128E-2
1.906132438E1,1.139628887E-1,2.034175396E-2,2.264690399E-2
1.908122566E1,6.295514107E-2,-1.550316811E-3,-1.281509399E-1
1.910111226E1,-4.803657532E-3,-4.028451443E-2,-1.518096924E-1
1.912100179E1,-8.517718315E-2,-3.948783875E-2,2.904987335E-2
1.914089074E1,-5.671381950E-2,-2.945864201E-2,1.302814484E-1
1.916076196E1,-7.721257210E-2,1.275348663E-2,1.346807480E-1
1.918065364E1,-9.255027771E-2,1.689958572E-2,3.130722046E-2
1.920054179E1,-8.578443527E-2,9.503006935E-3,-6.884384155E-2
1.922042993E1,-8.370232582E-2,6.226539612E-3,-9.441757202E-2
1.924031807E1,-7.383990288E-2,-1.649618149E-2,2.184391022E-2
1.926020496E1,-1.143450737E-1,-3.618621826E-2,1.919841766E-1
1.928010555E1,-1.404776573E-1,-7.574188709E-2,3.136110306E-1
1.929998511E1,-1.400015354E-1,-4.712581635E-3,1.997747421E-1
1.931988375E1,-1.759183407E-1,9.203672409E-2,-3.014183044E-2
1.933977206E1,1.243629456E-1,-4.259967804E-2,-1.291170120E-1
1.935965955E1,6.400322914E-2,-1.673585176E-1,-1.853227615E-1
1.937954879E1,3.073072433E-2,8.452081680E-2,8.126449585E-2
1.939941756E1,1.974966526E-1,-1.628707647E-1,9.302997589E-2
1.941932410E1,7.847118378E-2,5.553364754E-2,-1.111984253E-2
1.943918425E1,1.576035023E-1,-1.866650581E-2,-1.453189850E-1
1.945907312E1,1.047008038E-1,-8.073627949E-2,-2.768478394E-1
1.947896070E1,9.391641617E-2,-6.852185726E-2,-1.790857315E-1
1.949885348E1,1.937413216E-2,4.909396172E-3,1.023006439E-1
1.951875245E1,7.114005089E-2,-7.035577297E-2,1.048717499E-1
1.953864051E1,7.359981537E-4,2.870917320E-2,1.423501968E-1
1.955852869E1,7.784271240E-2,-7.535755634E-2,5.993366241E-2
1.957841688E1,-1.887559891E-2,2.914524078E-2,6.795406342E-2
1.959831690E1,1.011199951E-1,-9.045481682E-2,-2.420158386E-1
1.961820468E1,-2.360203266E-1,2.159358263E-1,-3.193235397E-1
1.963809274E1,-1.333906651E-1,4.245638847E-2,-2.909717560E-1
1.965798080E1,-2.880573273E-3,5.897521973E-2,-3.031778336E-1
1.967785759E1,-2.101602554E-1,5.466639996E-2,1.845970154E-1
1.969774582E1,-1.165524721E-1,-2.119636536E-2,3.010358810E-1
1.971763352E1,-5.074954033E-2,1.177799702E-2,4.876422882E-2
1.973752080E1,-8.089935780E-2,3.650903702E-2,-7.713317871E-2
1.975740891E1,-3.435420990E-2,1.268815994E-2,-9.835529327E-2
1.977729689E1,2.115345001E-2,-3.780126572E-4,-4.435634613E-2
1.979719768E1,2.218270302E-2,-3.109216690E-3,1.232433319E-2
1.981708615E1,1.267361641E-2,-1.434791088E-2,2.726554871E-2
1.983697422E1,5.560135841E-2,-4.807758331E-2,-1.477813721E-2
1.985686435E1,5.963444710E-2,-4.032850266E-2,-2.790737152E-2
1.987675172E1,8.566093445E-2,-6.076025963E-2,-2.987575531E-2
1.989662160E1,1.640751362E-1,-8.236777782E-2,4.434585571E-3
1.991652895E1,1.797120571E-1,-6.204998493E-2,-5.949115753E-2
1.993641660E1,1.121978760E-1,2.784609795E-3,-7.862854004E-2
1.995629201E1,1.154527664E-1,-1.594591141E-2,-1.328916550E-1
1.997616436E1,7.422482967E-2,-1.892948151E-2,-1.136074066E-1
1.999606732E1,4.236817360E-3,-1.866698265E-3,-9.445762634E-2
2.001595664E1,-8.382797241E-4,2.696347237E-2,-6.710910797E-2
2.003584454E1,-3.792023659E-2,2.990603447E-2,2.647781372E-2
2.005573285E1,-6.633424759E-2,-5.722701550E-2,2.244453430E-1
2.007560870E1,-1.325387955E-1,1.304987669E-1,4.259796143E-1
2.009552028E1,-4.172539711E-2,-7.815575600E-2,6.658172607E-2
2.011539712E1,-1.661714315E-1,4.621589184E-2,-1.240701675E-1
2.013528534E1,-1.846044064E-1,-8.162736893E-3,-2.195692062E-1
2.015517210E1,-1.133219004E-1,3.014278412E-2,-2.196044922E-1
2.017506167E1,-4.664301872E-3,5.283832550E-3,4.788589478E-2
2.019494989E1,4.449260235E-2,7.646799088E-3,1.530323029E-1
2.021483800E1,3.829634190E-2,-2.573323250E-2,7.703781128E-2
2.023472626E1,-9.220385551E-2,-2.258515358E-2,-2.116403580E-1
2.025461440E1,-7.076656818E-2,-2.210342884E-2,-2.343406677E-1
2.027449941E1,-2.279150486E-2,-1.192808151E-3,-6.155204773E-2
2.029440347E1,1.339435577E-2,4.638671875E-3,1.267719269E-1
2.031427871E1,-6.581902504E-3,2.926111221E-3,1.182050705E-1
2.033415750E1,-4.501736164E-2,-1.269114017E-2,3.666114807E-2
2.035405386E1,-3.861129284E-2,-4.419326782E-2,3.009319305E-2
2.037392805E1,-3.089308739E-3,-3.812575340E-2,4.565334320E-2
2.039383141E1,7.587909698E-2,-2.130746841E-2,-9.564876556E-2
2.041373066E1,1.001243591E-1,-1.358270645E-3,-1.581087112E-1
2.043360175E1,1.349111795E-1,2.345263958E-2,-1.126146317E-1
2.045349592E1,8.783757687E-2,6.300687790E-3,-3.920364380E-2
2.047338398E1,-4.715991020E-2,8.549332619E-3,8.353233337E-3
2.049327229E1,-1.341706514E-1,5.750775337E-3,4.737186432E-2
2.051316124E1,-1.246540546E-1,1.888608932E-2,3.375148773E-2
2.053303327E1,-4.094660282E-2,2.727675438E-2,-3.008937836E-2
2.055292121E1,-6.134510040E-3,3.253650665E-2,-7.351493835E-2
2.057282486E1,-6.283271313E-2,1.301693916E-2,-3.072834015E-2
2.059272448E1,-1.074053049E-1,-1.348268986E-2,1.620674133E-2
2.061259565E1,-9.747016430E-2,-2.342331409E-2,9.956455231E-2
2.063250052E1,-1.060974598E-2,-1.478993893E-2,4.133224487E-2
2.065238850E1,2.185451984E-2,-4.508376122E-3,-1.976013184E-2
2.067228084E1,6.271600723E-2,-3.936886787E-3,-8.678340912E-2
2.069215287E1,4.553794861E-3,-5.386114120E-3,-7.414436340E-2
2.071204089E1,1.226103306E-2,1.009941101E-3,-5.218791962E-2
2.073192887E1,3.951883316E-2,-6.424069405E-3,-3.804016113E-2
2.075181868E1,4.989945889E-2,-2.575325966E-2,-1.108455658E-2
2.077170674E1,5.562913418E-2,-1.227140427E-2,-2.662181854E-2
2.079160750E1,5.251407623E-2,-6.659865379E-3,-3.352069855E-2
2.081148303E1,1.436936855E-2,3.394246101E-3,-3.561687469E-2
2.083137109E1,-5.341804028E-2,7.022142410E-3,3.026866913E-2
2.085125915E1,-8.748936653E-2,-2.257561684E-2,1.167945862E-1
2.087114746E1,-6.890940666E-2,-1.509511471E-2,-1.264572144E-2
2.089103475E1,-7.200527191E-2,-8.959054947E-3,-3.593158722E-2
2.091093685E1,-2.422404289E-2,-2.240216732E-2,-3.077983856E-2
2.093081466E1,4.463338852E-2,-9.488582611E-3,-6.134605408E-2
2.095069995E1,7.605457306E-2,-1.060807705E-2,1.384162903E-2
2.097058830E1,1.066424847E-1,2.590060234E-3,1.247310638E-2
2.099047482E1,4.256224632E-2,1.782953739E-2,-5.045700073E-2
2.101036459E1,-3.853583336E-2,-4.469275475E-3,-6.757831573E-2
2.103023714E1,-4.793930054E-2,-5.078315735E-5,-1.050872803E-1
2.105014079E1,-2.014803886E-2,2.628242970E-2,-1.098985672E-1
2.107002788E1,-2.622389793E-2,3.035616875E-2,8.321285248E-2
2.108993067E1,-2.537584305E-2,-5.330324173E-3,1.629056931E-1
2.110981832E1,-3.089785576E-2,-2.017676830E-2,-1.852798462E-2
2.112968799E1,-6.483769417E-2,-2.955555916E-3,-7.361793518E-2
2.114959429E1,-3.056192398E-2,7.170319557E-3,-6.508922577E-2
2.116948373E1,1.912355423E-2,5.594015121E-3,-5.828285217E-2
2.118935832E1,6.843590736E-2,1.739740372E-3,-2.444267273E-2
2.120924622E1,4.789614677E-2,-7.356643677E-3,5.396938324E-2
2.122913428E1,3.750300407E-2,-2.051246166E-2,3.060054779E-2
2.124902105E1,-2.404737473E-2,-2.095997334E-2,-7.036209106E-2
2.126891098E1,-1.123189926E-2,-1.607930660E-2,-8.511066437E-2
2.128879208E1,-6.134510040E-3,-1.046395302E-2,-2.061843872E-3
2.130868108E1,-7.091760635E-3,1.139175892E-2,1.577568054E-2
2.132858851E1,-6.682872772E-3,7.502675056E-3,4.912376404E-3
2.134846184E1,-1.887941360E-2,-2.234101295E-3,-4.400920868E-2
2.136836236E1,-5.125355721E-2,-1.023125648E-2,-6.054878235E-3
2.138826926E1,-7.630825043E-3,-4.255330563E-2,5.202579498E-2
2.140813677E1,3.857302666E-2,-3.542590141E-2,1.589870453E-2
2.142802695E1,2.404093742E-2,-1.122808456E-2,-2.874279022E-2
2.144790431E1,7.812047005E-2,3.875970840E-3,-7.716083527E-2
2.146779229E1,5.241465569E-2,3.712534904E-3,-6.142330170E-2
2.148768068E1,-1.588964462E-2,1.251554489E-2,-1.276969910E-3
2.150756707E1,-4.731559753E-2,1.344823837E-2,5.494117737E-3
2.152745546E1,-7.838320732E-2,8.996844292E-3,-7.430171967E-2
2.154734389E1,-4.750776291E-2,6.204247475E-3,-7.487201691E-2
2.156723175E1,1.120877266E-2,-9.634494781E-4,2.838420868E-2
2.158713275E1,1.539707184E-2,5.165934563E-3,8.688926697E-2
2.160700380E1,-2.174735069E-2,2.122902870E-2,5.303192139E-2
2.162691087E1,-6.385755539E-2,2.110004425E-2,-1.393413544E-2
2.164679905E1,-6.413602829E-2,1.907563210E-2,-8.785915375E-2
2.166668719E1,-4.836750031E-2,-1.907706261E-3,-6.050968170E-2
2.168656256E1,-1.374959946E-3,-1.697993279E-2,4.272460938E-3
2.170645026E1,4.922890663E-2,-3.622853756E-2,3.924560547E-2
2.172632334E1,9.515738487E-2,-4.998683929E-2,2.531337738E-2
2.174622683E1,1.039636135E-1,-2.473080158E-2,-7.367324829E-2
2.176611501E1,8.728194237E-2,4.477500916E-3,-1.306104660E-1
2.178601744E1,3.956127167E-2,1.080489159E-2,-9.582328796E-2
2.180590448E1,1.087856293E-2,-1.934599876E-2,-4.263973236E-2
2.182579018E1,-2.169418335E-2,-2.380490303E-3,9.082794189E-3
2.184568020E1,-3.449916840E-2,-8.028745651E-4,5.122184753E-2
2.186556871E1,-2.614164352E-2,3.200173378E-3,3.299522400E-2
2.188546361E1,-2.167320251E-2,8.219480515E-4,-1.141166687E-2
2.190534471E1,-2.982282639E-2,-9.175419807E-3,8.641242981E-3
2.192523338E1,-4.637002945E-2,-2.034795284E-2,4.203319550E-2
2.194510834E1,-5.048680305E-2,-7.044792175E-3,-1.373291016E-2
2.196499807E1,1.077127457E-2,1.589548588E-2,-1.107931137E-1
2.198488459E1,5.696535110E-2,2.135777473E-2,-9.392261505E-2
2.200477273E1,2.965569496E-2,2.371704578E-2,-3.246974945E-2
2.202466100E1,-2.225399017E-3,1.124441624E-2,-3.959369659E-2
2.204454902E1,-1.051163673E-2,-1.370573044E-2,5.033493042E-3
2.206443732E1,-7.080078125E-3,-1.167380810E-2,1.560688019E-2
2.208431452E1,-1.863694191E-2,5.567073822E-5,-1.434803009E-2
2.210422667E1,2.315998077E-3,-1.824188232E-2,-2.533912659E-2
2.212410208E1,9.149312973E-3,-8.457541466E-3,-4.417228699E-2
2.214399083E1,-1.719903946E-2,-1.144313812E-2,-1.494312286E-2
2.216387820E1,5.428791046E-4,-1.567482948E-2,-3.231048584E-3
2.218376623E1,2.545833588E-2,-2.245807648E-2,-5.434036255E-3
2.220365311E1,4.173588753E-2,-8.907675743E-3,-5.502033234E-2
2.222354268E1,6.603503227E-2,-1.015579700E-2,-4.804801941E-2
2.224343082E1,2.841711044E-3,1.143789291E-2,1.125335693E-3
2.226331900E1,-4.284024239E-2,1.893329620E-2,3.207397461E-2
2.228320723E1,-6.173276901E-2,7.886648178E-3,-5.635356903E-2
2.230310733E1,-6.512069702E-2,-7.434129715E-3,-7.488727570E-2
2.232297798E1,-2.879667282E-2,-1.012456417E-2,-6.704330444E-4
2.234287276E1,2.768898010E-2,6.969928741E-3,2.568817139E-2
2.236275398E1,3.636074066E-2,6.089210510E-3,4.321098328E-2
2.238265889E1,-1.741766930E-2,-5.658626556E-3,3.854274750E-2
2.240254712E1,-4.986524582E-2,-1.322114468E-2,-3.727817535E-2
2.242243510E1,-1.560235023E-2,-2.232587337E-2,-6.457042694E-2
2.244231152E1,2.106666565E-2,-7.572054863E-3,-7.405948639E-2
2.246219918E1,3.612470627E-2,-3.976464272E-3,-7.173442841E-2
2.248208740E1,5.103063583E-2,-3.547906876E-3,-3.032684326E-3
2.250196464E1,3.911781311E-2,-1.693260670E-2,-3.505706787E-3
2.252186515E1,-9.658336639E-4,-4.312992096E-4,-2.206325531E-2
2.254175342E1,1.791334152E-2,-1.959323883E-3,-5.178451538E-2
2.256164132E1,-2.271413803E-2,-7.913589478E-3,-4.988384247E-2
2.258154236E1,-4.598164558E-2,-2.683639526E-3,6.989479065E-3
2.260143038E1,-6.751060486E-3,1.149177551E-3,-2.570152283E-3
2.262131954E1,1.400995255E-2,1.781821251E-2,-2.778720856E-2
2.264119039E1,-2.875566483E-2,1.677405834E-2,2.272987366E-2
2.266108855E1,-7.859492302E-2,-2.702355385E-3,1.715564728E-2
2.268098430E1,-7.056331635E-2,-1.344895363E-2,4.108333588E-2
2.270084343E1,-3.855228424E-3,3.647804260E-4,-1.303958893E-2
2.272073226E1,3.951120377E-2,9.163856506E-3,-7.989311218E-2
2.274063534E1,2.611851692E-2,8.401155472E-3,-6.860160828E-2
2.276052328E1,3.824949265E-3,-1.691305637E-2,-4.336071014E-2
2.278041016E1,4.862499237E-2,-2.629923820E-2,-4.369258881E-2
2.280029953E1,6.365084648E-2,8.676528931E-3,-3.190994263E-2
2.282018779E1,3.097558022E-2,1.684594154E-2,-1.991367340E-2
2.284007646E1,-1.405692101E-2,7.772088051E-3,-5.410671234E-2
2.285996428E1,-1.111478806E-1,-1.317572594E-2,-2.818107605E-3
2.287986520E1,-8.177876472E-2,-2.314591408E-2,8.787059784E-2
2.289975302E1,-2.072596550E-2,-1.924932003E-2,4.449081421E-2
2.291964186E1,-1.158070564E-2,1.533412933E-2,-4.834461212E-2
2.293950127E1,-1.234173775E-2,1.056516171E-2,-6.456661224E-2
2.295940500E1,4.856586456E-3,-7.433056831E-3,-2.331733704E-3
2.297929282E1,1.536774635E-2,-4.020583630E-2,3.845214844E-2
2.299918104E1,2.388048172E-2,-3.637635708E-2,-4.486083984E-2
2.301906882E1,8.164572716E-2,-1.002967358E-2,-8.311557770E-2
2.303895753E1,9.085655212E-2,1.268124580E-2,-2.955055237E-2
2.305884568E1,1.383543015E-2,3.036808968E-2,-2.723693848E-3
2.307874692E1,-5.463933945E-2,-1.016628742E-2,-1.190376282E-2
2.309863494E1,-9.890842438E-2,-3.661465645E-2,-6.047153473E-2
2.311852341E1,-8.073425293E-2,-1.782023907E-2,-4.830360413E-2
2.313839601E1,4.423379898E-3,1.811110973E-2,2.134609222E-2
2.315829950E1,8.436918259E-2,2.412974834E-2,9.340858459E-2
2.317818601E1,3.678536415E-2,2.337801456E-2,9.716415405E-2
2.319807391E1,-5.846405029E-2,-1.741743088E-2,-7.319450378E-3
2.321795115E1,-1.066236496E-1,-1.763367653E-2,-1.471834183E-1
2.323783917E1,-6.168913841E-2,2.834916115E-3,-1.210956573E-1
2.325772719E1,4.632425308E-2,-7.876157761E-4,-2.890968323E-2
2.327761391E1,8.571124077E-2,-2.363371849E-2,3.522014618E-2
2.329750230E1,5.010986328E-2,-2.492988110E-2,1.281070709E-2
2.331739736E1,2.760338783E-2,-5.854487419E-3,1.435661316E-2
2.333727439E1,3.060269356E-2,1.556515694E-3,-9.033489227E-2
2.335717942E1,-2.203106880E-2,-1.637101173E-3,-1.437005997E-1
2.337706757E1,-3.930902481E-2,1.751899719E-3,-4.671287537E-2
2.339695758E1,-3.314542770E-2,2.906918526E-3,5.020618439E-2
2.341682302E1,-2.358794212E-2,8.313655853E-4,1.024427414E-1
2.343672064E1,-2.551698685E-2,1.365780830E-3,5.674648285E-2
2.345660891E1,-6.027555466E-2,1.427888870E-2,-2.985572815E-2
2.347649701E1,-7.023191452E-2,6.254673004E-3,-6.983470917E-2
2.349638532E1,-3.603911400E-2,-6.718635559E-3,-4.886341095E-2
2.351627334E1,7.877278328E-2,-7.554531097E-3,-2.522945404E-2
2.353616148E1,7.469415665E-2,-3.792047501E-3,-6.214141846E-3
2.355604837E1,3.715276718E-2,-5.174517632E-3,-2.080154419E-2
2.357595051E1,1.318645477E-2,-1.877844334E-2,-7.613945007E-2
2.359583910E1,-2.287673950E-2,-1.858460903E-2,-5.951881409E-2
2.361570848E1,-2.812290192E-2,-7.254481316E-3,3.145217896E-3
2.363561534E1,8.546829224E-3,5.737781525E-3,-1.088619232E-2
2.365550365E1,1.929283142E-3,2.090907097E-2,-2.382850647E-2
2.367538988E1,-3.996777534E-2,5.479335785E-3,2.507877350E-2
2.369527985E1,-8.570122719E-2,-1.590120792E-2,-2.526283264E-3
2.371513952E1,-8.231115341E-2,-2.015602589E-2,-1.806449890E-2
2.373504198E1,-6.082057953E-3,-6.636381149E-3,3.436374664E-2
2.375493147E1,5.302143097E-2,8.205056190E-3,2.915287018E-2
2.377481949E1,5.821704865E-2,1.067280769E-2,-5.948066711E-2
2.379470775E1,-1.267313957E-2,-4.292249680E-3,-4.805374146E-2
2.381460876E1,-6.438231468E-2,-3.701984882E-2,-2.239608765E-2
2.383449657E1,-5.485749245E-2,-2.699685097E-2,-2.688026428E-2
2.385438508E1,1.343607903E-2,6.934046745E-3,-2.252197266E-2
2.387427164E1,3.354334831E-2,4.166364670E-2,3.184413910E-2
2.389416019E1,-2.181529999E-4,1.788318157E-2,-5.801486969E-2
2.391404760E1,1.483511925E-2,-7.607936859E-3,-1.528034210E-1
2.393393611E1,-2.489089966E-4,-2.864801884E-2,-7.534122467E-2
2.395381298E1,-3.507137299E-3,6.024003029E-3,6.801891327E-2
2.397370117E1,9.398460388E-4,3.391969204E-2,6.533432007E-2
2.399358935E1,-2.216148376E-2,3.593063354E-2,8.802413940E-3
2.401347745E1,-4.965257645E-2,2.016067505E-2,3.002929688E-2
2.403336572E1,-6.244349480E-2,-5.081772804E-3,-1.710510254E-2
2.405325374E1,-3.755617142E-2,-3.719425201E-2,-6.399154663E-2
2.407313655E1,1.028561592E-2,-5.310714245E-2,-2.982521057E-2
2.409302425E1,7.200598717E-2,-5.146324635E-2,-3.103923798E-2
2.411291947E1,7.112979889E-2,-7.596135139E-3,2.258300781E-2
2.413281783E1,5.609393120E-2,-7.163763046E-3,2.235889435E-2
2.415270622E1,3.369998932E-2,-1.631093025E-2,-1.238441467E-1
2.417259420E1,4.839110374E-2,-1.694679260E-3,-1.134033203E-1
2.419249032E1,6.468367577E-2,4.260182381E-3,-7.691383362E-3
2.421235807E1,2.165722847E-2,2.095341682E-3,3.113842010E-2
2.423224589E1,-4.735589027E-2,7.690191269E-4,1.077938080E-2
2.425213428E1,-8.312606812E-2,-2.189517021E-3,6.727218628E-3
2.427202254E1,-6.849551201E-2,-9.927749634E-4,2.395153046E-2
2.429191203E1,-4.432201385E-4,1.730084419E-3,2.563190460E-2
2.431181324E1,2.516913414E-2,5.422830582E-3,9.450912476E-4
2.433170284E1,2.209758759E-2,-1.054632664E-2,-2.719688416E-2
2.435158903E1,1.388072968E-2,-2.232015133E-2,-7.691574097E-2
2.437147771E1,1.611232758E-2,-1.846849918E-2,-8.179664612E-2
2.439134673E1,6.604862213E-2,-1.985919476E-2,-4.044055939E-2
2.441125416E1,5.346202850E-2,-7.391333580E-3,-8.915901184E-3
2.443112399E1,-6.160497665E-3,-3.619670868E-3,-9.385108948E-3
2.445101718E1,-3.861451149E-2,-1.867961884E-2,2.447700500E-2
2.447090532E1,-1.182246208E-2,-1.615166664E-2,1.541137695E-3
2.449079355E1,5.642652512E-3,1.174020767E-2,-4.682159424E-2
2.451068206E1,-5.543351173E-2,1.881873608E-2,-7.634544373E-2
2.453056979E1,-9.483671188E-2,8.114576340E-3,-2.622222900E-2
2.455045814E1,-4.689121246E-2,-1.734673977E-2,6.171035767E-2
2.457033786E1,3.679466248E-2,-3.740262985E-2,8.739376068E-2
2.459024708E1,6.577229500E-2,-2.059996128E-2,4.589271545E-2
2.461013470E1,1.007204056E-1,-9.783387184E-3,-9.942913055E-2
2.463002292E1,4.718232155E-2,1.753151417E-2,-1.623649597E-1
2.464991192E1,-6.020784378E-3,2.709639072E-2,-9.103584290E-2
2.466979376E1,-3.888845444E-2,-5.422830582E-4,-1.135158539E-2
2.468968882E1,-3.874802589E-2,-3.250527382E-2,-1.350498199E-2
2.470956329E1,-7.497549057E-3,-1.726281643E-2,4.469871521E-2
2.472945167E1,2.735948563E-2,3.226041794E-3,6.103324890E-2
2.474934002E1,7.425785065E-3,1.587021351E-2,7.860183716E-3
2.476922784E1,-3.380966187E-2,-8.535742760E-3,-3.186988831E-2
2.478911631E1,-6.358861923E-2,-2.582633495E-2,-3.090190887E-2
2.480901910E1,-6.951594353E-2,-1.257872581E-2,-8.568859100E-2
2.482890391E1,-9.644031525E-3,5.521655083E-3,-5.604743958E-2
2.484879368E1,6.962585449E-2,1.933574677E-3,2.928924561E-2
2.486868194E1,7.170867920E-2,-2.056705952E-2,3.609657288E-2
2.488857058E1,-2.191090584E-2,-1.330816746E-2,-3.820991516E-2
2.490843927E1,-3.367161751E-2,-1.398849487E-2,-5.679798126E-2
2.492834470E1,-4.873275757E-3,-7.985353470E-3,-1.094493866E-1
2.494822141E1,4.059314728E-3,-1.018607616E-2,-5.037498474E-2
2.496811118E1,3.843426704E-2,-9.390234947E-3,5.640125275E-2
2.498799990E1,1.549506187E-2,-3.199696541E-3,3.923225403E-2
2.500788584E1,-5.070996284E-2,-5.866765976E-3,-2.380371094E-3
2.502777444E1,-8.860135078E-2,-1.604199409E-2,-9.791374207E-3
2.504766221E1,-6.098675728E-2,-6.973505020E-3,-4.477119446E-2
2.506756171E1,-1.677227020E-2,1.744127274E-2,-1.513385773E-2
2.508744921E1,8.607149124E-3,2.658164501E-2,-6.126403809E-3
2.510733844E1,2.148294449E-2,3.138244152E-2,-3.274345398E-2
2.512722590E1,8.328437805E-3,1.120579243E-2,-9.571075439E-3
2.514709699E1,-2.096104622E-2,-2.302455902E-2,5.847930908E-3
2.516700414E1,1.717090607E-3,-4.589474201E-2,-3.530311584E-2
2.518689220E1,5.987644196E-2,-3.086686134E-2,-6.707859039E-2
2.520676801E1,8.214187622E-2,-6.207227707E-4,-3.856182098E-2
2.522665603E1,1.993894577E-3,2.396821976E-2,-2.642345428E-2
2.524655028E1,-9.468030930E-2,2.336561680E-2,-1.725482941E-2
2.526643224E1,-1.019620895E-1,-2.108633518E-2,2.958393097E-2
2.528632022E1,-4.255938530E-2,-1.868748665E-2,2.265071869E-2
2.530622342E1,1.797032356E-2,-9.323120117E-3,-2.512645721E-2
2.532610761E1,5.729770660E-2,2.074086666E-2,-4.874897003E-2
2.534597903E1,4.799127579E-2,7.960319519E-3,-3.537750244E-2
2.536591043E1,-3.786087036E-4,-2.266442776E-2,-1.243877411E-2
2.538577379E1,-4.034280777E-2,-3.103244305E-2,2.657985687E-2
2.540566043E1,-3.752231598E-3,-1.857149601E-2,-2.131366730E-2
2.542555020E1,2.851009369E-3,5.746483803E-3,-4.839134216E-2
2.544541023E1,1.640796661E-2,3.612029552E-2,-2.259254456E-2
2.546531383E1,3.554582596E-3,2.073740959E-2,-4.713058472E-2
2.548520182E1,-2.402257919E-2,-2.387368679E-2,-6.875324249E-2
2.550509081E1,-4.004096985E-2,-3.659045696E-2,-6.213188171E-3
2.552497822E1,-3.606700897E-2,-2.098619938E-2,5.313110352E-2
2.554486645E1,3.101468086E-2,-6.164312363E-3,7.775020599E-2
2.556476802E1,-3.525972366E-3,-5.998134613E-3,5.312728882E-2
2.558467968E1,-2.458000183E-2,-6.688117981E-3,2.005577087E-3
2.560453715E1,-4.258465767E-2,-3.391861916E-3,-1.090002060E-1
2.562443172E1,-4.395484924E-3,5.002498627E-3,-1.276683807E-1
2.564432023E1,4.052615166E-2,4.115939140E-3,-5.030345917E-2
2.566420690E1,5.637335777E-2,-2.109837532E-2,1.574420929E-2
2.568409497E1,4.280686378E-2,-4.787886143E-2,2.626514435E-2
2.570395638E1,-2.220249176E-2,-2.539217472E-2,-2.701663971E-2
2.572385351E1,-6.348109245E-2,-1.927959919E-2,-8.215904236E-3
2.574374821E1,-1.040124893E-2,-6.658315659E-3,-4.725551605E-2
2.576363639E1,2.287721634E-2,1.678705215E-2,-8.366584778E-2
2.578352441E1,5.890607834E-3,2.272880077E-2,2.685070038E-2
2.580341264E1,-5.289101601E-2,1.382696629E-2,6.884860992E-2
2.582329484E1,-1.016724110E-1,-6.207346916E-3,2.143669128E-2
2.584318315E1,-9.003162384E-2,2.713084221E-3,-2.142620087E-2
2.586307430E1,-3.282690048E-2,-1.346588135E-3,-4.956150055E-2
2.588295980E1,4.300284386E-2,5.545854568E-3,-3.049278259E-2
2.590286450E1,7.670354843E-2,4.392385483E-3,-5.228233337E-2
2.592275269E1,5.310702324E-2,-3.213524818E-3,-8.626747131E-2
2.594261516E1,6.122493744E-2,-1.996445656E-2,-2.191925049E-2
2.596250293E1,4.617094994E-2,-3.531062603E-2,2.422332764E-4
2.598239087E1,-8.759975433E-3,-1.829624176E-2,-5.539608002E-2
2.600229301E1,-2.094578743E-2,4.637122154E-3,-7.611846924E-2
2.602218124E1,-2.861976624E-2,1.628899574E-2,-5.722808838E-2
2.604207028E1,-2.195191383E-2,1.514661312E-2,4.215717316E-2
2.606195867E1,-2.738928795E-2,1.510632038E-2,2.873325348E-2
2.608184717E1,-7.063221931E-2,8.121728897E-3,-5.674362183E-3
2.610174769E1,-4.115843773E-2,-1.376068592E-2,1.847553253E-2
2.612163608E1,-3.496098518E-2,-4.421949387E-3,-3.730773926E-3
2.614152511E1,-2.670955658E-2,1.692855358E-2,-1.768398285E-2
2.616141277E1,3.584504128E-2,1.120936871E-2,-3.185176849E-2
2.618130140E1,8.287811279E-2,1.953613758E-2,-7.649993896E-2
2.620117022E1,6.638526917E-2,5.890130997E-3,-5.093479156E-2
2.622106414E1,2.825212479E-2,-1.796388626E-2,-9.102821350E-3
2.624095269E1,-3.506898880E-2,-1.212489605E-2,-5.640220642E-2
2.626084075E1,-2.006340027E-2,2.344846725E-3,-3.892612457E-2
2.628072885E1,2.911758423E-2,3.409516811E-2,1.211929321E-2
2.630061053E1,5.743503571E-4,2.407550812E-2,-7.222270966E-2
2.632051865E1,-3.319525719E-2,-1.116573811E-2,-7.616329193E-2
2.634040626E1,-4.013776779E-2,-3.340220451E-2,1.849460602E-2
2.636027789E1,-2.618408203E-2,-1.654422283E-2,9.206771851E-2
2.638016245E1,-1.533460617E-2,6.053447723E-3,8.921623230E-2
2.640006874E1,-2.778410912E-2,1.192748547E-2,7.950782776E-3
2.641994041E1,-3.188896179E-2,-6.918668747E-3,-7.955837250E-2
2.643984727E1,-3.440451622E-2,-4.106163979E-3,-8.499240875E-2
2.645970685E1,1.945972443E-2,-1.935017109E-2,-4.197311401E-2
2.647961021E1,6.598377228E-2,-1.833236217E-2,-1.602268219E-2
2.649949876E1,5.727958679E-2,-3.213393688E-2,-6.099700928E-3
2.651938702E1,-6.153583527E-4,-2.162551880E-2,-3.267288208E-3
2.653927484E1,1.189208031E-2,9.492158890E-3,-2.465343475E-2
2.655916311E1,6.246709824E-2,5.587220192E-3,-8.388996124E-2
2.657906199E1,6.444549561E-2,7.127642632E-3,-4.073238373E-2
2.659895254E1,-1.295375824E-2,-9.883642197E-4,2.339363098E-3
2.661884068E1,-7.759308815E-2,-2.491211891E-2,1.857757568E-2
2.663872898E1,-8.900690079E-2,-3.716373444E-2,4.977416992E-2
2.665861754E1,-1.441669464E-2,-1.291823387E-2,2.514743805E-2
2.667849563E1,6.081151962E-2,9.407877922E-3,-1.999664307E-2
2.669837523E1,1.046230793E-1,1.917433739E-2,-9.819030762E-3
2.671826866E1,7.342720032E-2,-5.054831505E-3,-8.978843689E-2
2.673814362E1,-5.073308945E-3,-3.358507156E-2,-8.075618744E-2
2.675804352E1,-3.830814362E-2,-5.012214184E-2,6.040668488E-2
2.677791836E1,-2.242898941E-2,-3.136301041E-2,3.119659424E-2
2.679782136E1,2.362012863E-2,6.975769997E-3,-3.571414948E-2
2.681772081E1,-1.300930977E-2,-2.967119217E-4,-2.920436859E-2
2.683760908E1,1.357173920E-2,1.629590988E-2,-1.684780121E-1
2.685749673E1,-1.020324230E-1,-1.657676697E-2,1.591310501E-1
2.687738467E1,7.772564888E-2,-1.488101482E-2,7.161998749E-2
2.689727346E1,7.160949707E-2,2.143430710E-2,-1.930932999E-1
2.691716116E1,-1.829338074E-2,7.590174675E-3,-1.219892502E-1
2.693704971E1,-2.412223816E-2,-2.063310146E-2,5.766391754E-2
2.695693932E1,1.617670059E-3,-1.099479198E-2,7.523632050E-2
2.697681489E1,2.179741859E-2,-2.206420898E-2,1.090173721E-1
2.699670299E1,-5.344223976E-2,3.051388264E-2,-3.446760178E-1
2.701659093E1,1.770424843E-2,-3.082489967E-2,8.301258087E-2
2.703647928E1,-2.971982956E-2,-2.187108994E-2,1.733512878E-1
2.705636722E1,1.028575897E-1,1.188123226E-2,-1.265802383E-1
2.707626830E1,9.831905365E-3,4.217410088E-2,-1.438713074E-1
2.709615555E1,-2.328062057E-2,2.106094360E-2,2.148628235E-2
2.711604268E1,-1.925349236E-2,-2.096092701E-2,8.501529694E-2
2.713593147E1,-4.633712769E-2,-1.393175125E-2,4.175281525E-2
2.715581514E1,-3.633856773E-2,1.567602158E-3,-4.917812347E-2
2.717570959E1,-6.206858158E-2,1.976490021E-2,-4.096031189E-3
2.719559521E1,-9.935355186E-2,1.054072380E-2,6.911659241E-2
2.721545715E1,-6.947588921E-2,-7.154703140E-3,4.275321960E-3
2.723536092E1,-2.642560005E-2,2.545237541E-3,-1.021127701E-1
2.725523356E1,4.462456703E-2,1.876115799E-2,-9.895706177E-2
2.727513720E1,9.078431129E-2,6.664037704E-3,-5.031108856E-2
2.729502404E1,4.503250122E-2,-3.540158272E-3,-2.538681030E-3
2.731494303E1,-1.710414886E-3,-2.962017059E-2,3.026962280E-3
2.733480672E1,-5.035591125E-2,-8.712768555E-3,-2.846717834E-3
2.735470292E1,-3.952860832E-2,-5.058288574E-3,-6.192398071E-2
2.737459110E1,1.716113091E-2,1.541113853E-2,-9.710025787E-2
2.739446008E1,5.765199661E-2,1.500749588E-2,2.694034576E-2
2.741436739E1,3.297901154E-2,1.365613937E-2,4.471206665E-2
2.743425517E1,-6.295716763E-2,2.445793152E-2,-1.102943420E-1
2.745414177E1,-1.215980053E-1,9.473681450E-3,-1.131725311E-2
2.747400370E1,-1.081885099E-1,-3.152251244E-3,1.312103271E-1
2.749390702E1,-4.812729359E-2,8.435130119E-3,-1.434421539E-2
2.751379521E1,-2.362775803E-2,2.605175972E-2,-9.565067291E-2
2.753368339E1,2.312636375E-2,7.682085037E-3,2.799892426E-2
2.755357150E1,1.696288586E-2,-8.172512054E-3,3.997421265E-2
2.757347294E1,-3.098642826E-2,-2.920007706E-2,-1.303596497E-1
2.759335938E1,-4.485595226E-2,-3.810858727E-2,-6.882095337E-2
2.761323007E1,1.865887642E-2,-2.610552311E-2,1.073675156E-1
2.763311821E1,4.270088673E-2,2.828836441E-3,4.730510712E-2
2.765301632E1,2.497673035E-2,2.887964249E-3,-1.040592194E-1
2.767293608E1,-8.844137192E-4,-3.955245018E-3,-5.566596985E-2
2.769280026E1,-1.442229748E-2,-1.431357861E-2,-6.464862823E-2
2.771268832E1,-1.149713993E-2,-1.681876183E-2,1.720142365E-2
2.773256397E1,2.869534492E-2,-3.308057785E-2,7.231616974E-2
2.775245175E1,3.915870190E-2,-3.463315964E-2,-2.745437622E-2
2.777234026E1,4.739975929E-2,-4.697608948E-2,3.843307495E-3
2.779222816E1,6.988358498E-2,-4.663062096E-2,3.289985657E-2
2.781211663E1,6.840991974E-2,-2.264225483E-2,-7.558059692E-2
2.783199993E1,6.411588192E-2,2.201473713E-2,-1.373043060E-1
2.785190740E1,4.057657719E-2,5.586230755E-2,-1.050386429E-1
2.787179534E1,-5.148148537E-2,7.256102562E-2,-1.098937988E-1
2.789168308E1,-1.020597219E-1,5.995965004E-2,4.851436615E-2
2.791157134E1,-5.911636353E-2,-2.196311951E-3,1.219615936E-1
2.793145957E1,-1.030135155E-1,-9.923696518E-3,-2.550029755E-2
2.795134848E1,-1.431392431E-1,6.211161613E-3,-1.365947723E-2
2.797122308E1,-9.704971313E-2,1.697409153E-2,-6.204605103E-3
2.799111147E1,-8.481431007E-2,6.619930267E-3,-7.374763489E-3
2.801100225E1,-8.926546574E-2,1.415538788E-2,4.497051239E-2
2.803088800E1,-7.366836071E-2,2.285480499E-2,4.892730713E-2
2.805077594E1,-5.018126965E-2,1.438367367E-2,2.952861786E-2
2.807067690E1,-2.845370770E-2,-2.267122269E-3,-6.911563873E-2
2.809056541E1,-9.667038918E-3,-4.966008663E-2,-9.872722626E-2
2.811047670E1,3.114056587E-2,-9.432411194E-2,-1.781845093E-2
2.813034129E1,7.224428654E-2,-1.181614399E-1,2.698516846E-2
2.815022988E1,1.123236418E-1,-6.849002838E-2,2.264690399E-2
2.817011708E1,1.557047367E-1,-1.313388348E-2,-7.096958160E-2
2.819000706E1,1.728920937E-1,1.008713245E-2,-2.089843750E-1
2.820986831E1,1.841449738E-1,-9.560942650E-3,-2.552309036E-1
2.822976927E1,1.411886215E-1,1.271009445E-3,-1.075181961E-1
2.824965737E1,6.600856781E-2,1.957058907E-2,4.218482971E-2
2.826954572E1,-1.959061623E-2,1.300382614E-2,1.331605911E-1
2.828943374E1,-8.949661255E-2,-5.710721016E-3,7.897186279E-2
2.830931732E1,-6.394624710E-2,-4.852938652E-2,-9.089469910E-3
2.832922353E1,-7.481265068E-2,-7.044577599E-2,-1.047039032E-2
2.834913113E1,-4.386901855E-2,-3.674387932E-2,1.124601364E-1
2.836892159E1,2.994105816E-1,4.730582237E-2,6.488008499E-1
2.838887588E1,6.108908653E-1,-5.997061729E-2,1.444351196E0
2.840876321E1,3.981420994E-1,-7.822978497E-2,9.583311081E-1
2.842865111E1,-1.102051735E-1,-4.806602001E-2,-5.716724396E-1
2.844853929E1,-3.353563547E-1,-3.275895119E-2,-1.119153976E0
2.846842727E1,-1.630063057E-1,-8.565306664E-3,-8.693704605E-1
2.848831574E1,7.152891159E-2,7.114267349E-2,-7.957658768E-1
2.850820384E1,1.439116001E-1,9.852695465E-2,-9.116706848E-1
2.852809146E1,7.348752022E-2,7.629811764E-2,-7.211856842E-1
2.854798033E1,-2.950692177E-2,2.138566971E-2,-1.222133636E-2
2.856787975E1,-1.135497093E-1,-4.791986942E-2,6.477642059E-1
2.858776757E1,-2.565636635E-1,-6.689155102E-2,7.382593155E-1
2.860765567E1,-4.553666115E-1,-4.666578770E-2,2.682466507E-1
2.862754406E1,-5.464404821E-1,-1.479792595E-2,-4.402017593E-1
2.864743179E1,-5.088963509E-1,5.215597153E-2,-7.604103088E-1
2.866732063E1,-4.018008709E-1,1.750156879E-1,-4.658718109E-1
2.868721309E1,-2.015392780E-1,1.969462633E-1,1.035280228E-1
2.870709647E1,-7.045173645E-2,1.919739246E-1,4.488830566E-1
2.872697399E1,-9.182381630E-2,1.100611687E-1,4.151716232E-1
2.874686173E1,-1.104652882E-1,1.032388210E-2,2.790203094E-1
2.876674983E1,-3.564214706E-2,-6.717932224E-2,3.257761002E-1
2.878662410E1,1.269316673E-2,-1.300255060E-1,4.310655594E-1
2.880652636E1,-5.064487457E-3,-1.593835354E-1,3.247051239E-1
2.882642789E1,1.922488213E-2,-1.292672157E-1,1.541900635E-2
2.884631538E1,1.805112362E-1,-7.379508018E-2,-2.207498550E-1
2.886620194E1,3.492784500E-1,1.280605793E-2,-3.592357635E-1
2.888607324E1,5.214889050E-1,7.861304283E-2,-3.773508072E-1
2.890598018E1,5.334959030E-1,7.497417927E-2,-3.043928146E-1
2.892586625E1,3.679952621E-1,9.753108025E-3,-1.529006958E-1
2.894575626E1,2.375807762E-1,-8.136200905E-2,-4.248809814E-2
2.896563208E1,1.583080292E-1,-1.300138235E-1,-7.021522522E-2
2.898551998E1,1.314322948E-1,-1.017757654E-1,-3.557682037E-2
2.900540820E1,6.564974785E-2,-6.434655190E-2,8.017539978E-3
2.902529639E1,2.817702293E-2,-7.427477837E-2,3.921604156E-2
2.904518428E1,-4.813480377E-2,-8.667242527E-2,7.298946381E-2
2.906508333E1,-9.055447578E-2,-1.028820276E-1,5.539989471E-2
2.908497355E1,-8.651304245E-2,-5.841767788E-2,5.476856232E-2
2.910484896E1,-7.834815979E-2,-6.876814365E-2,8.156204224E-2
2.912473706E1,-8.134555817E-2,-1.411598921E-1,1.237936020E-1
2.914462512E1,-4.233121872E-2,-2.842450142E-1,7.235431671E-2
2.916450875E1,-8.045196533E-3,-3.661849499E-1,1.069583893E-1
2.918438623E1,-1.865673065E-2,-3.780537844E-1,1.309804916E-1
2.920427523E1,-1.205873489E-2,-4.552180767E-1,1.442337036E-1
2.922416260E1,2.508728504E-1,-7.768727541E-1,3.355178833E-1
2.924406588E1,2.853145599E-1,-1.045274496E0,7.295923233E-1
2.926395423E1,1.157557964E-1,-1.016399503E0,8.759584427E-1
2.928384241E1,2.926719189E-1,-8.535202742E-1,2.630624771E-1
2.930373056E1,5.158255100E-1,-8.942682743E-1,-4.818859100E-1
2.932361870E1,6.849231720E-1,-1.162638664E0,-5.816745758E-1
2.934352015E1,5.437865257E-1,-1.517515898E0,-2.313709259E-2
2.936340732E1,3.266890049E-1,-1.576929450E0,5.479164124E-1
2.938327800E1,3.985655308E-1,-1.391852260E0,1.814899445E-1
2.940316566E1,3.816201687E-1,-1.150807738E0,-1.246091843E0
2.942307496E1,2.161712646E-1,-9.512473345E-1,-1.353618622E0
2.944294227E1,3.353214264E-1,-1.310598731E0,-1.201457024E0
2.946282069E1,3.107857704E-1,-1.246007800E0,5.816421509E-1
2.948272421E1,5.038397312E-1,-1.295142293E0,8.030748367E-1
2.950261264E1,1.651935577E-1,-8.454639912E-1,2.243576050E-1
2.952249908E1,1.249423027E-1,-3.483616114E-1,-1.012987137E0
2.954238750E1,2.509090900E-1,-3.850886822E-1,-1.293813705E0
2.956227540E1,-3.624589443E-1,-3.688244820E-1,-3.326711655E-1
2.958217644E1,-1.358120084E0,-4.356024265E-1,-1.729030609E-1
2.960206410E1,-4.077255726E-1,-1.135301590E0,3.932189941E-1
2.962195436E1,-1.800072193E-1,-4.164252281E-1,3.285326958E0
2.964184226E1,-8.427378535E-1,3.661093712E-1,3.008353233E0
2.966173093E1,-1.087579608E0,-2.748358250E-2,1.365880966E-1
2.968161944E1,-2.032855034E0,1.581895351E-2,-4.120686531E0
2.970150681E1,-7.292828560E-1,3.083788157E-1,-2.820434093E0
2.972141660E1,8.162872791E-1,2.118446827E-1,-1.313450813E0
2.974127028E1,8.285389543E-1,1.243944168E0,-8.909130096E-1
2.976115851E1,7.383180857E-1,8.250329494E-1,-7.922544479E-1
2.978104734E1,-2.127775699E-1,7.853631973E-1,-3.863391876E-1
2.980093500E1,-1.026265144E0,1.128403306E0,1.319849968E0
2.982082196E1,-1.655893177E-1,4.601342678E-1,2.689139366E0
2.984069602E1,1.375216722E0,5.090900660E-1,1.438199043E0
2.986061204E1,1.400679350E-1,1.669306993E0,2.510070801E-2
2.988050104E1,-6.227479577E-1,2.170329571E0,-1.218118668E-1
2.990038894E1,-3.618990779E-1,1.673169017E0,2.793989182E-1
2.992027716E1,-7.326114178E-1,1.293255806E0,-1.943321228E-1
2.994016531E1,-6.307364106E-1,9.369533658E-1,1.041641235E-1
2.996002529E1,6.052911282E-3,7.572240829E-1,1.751585007E0
2.997992878E1,-4.443086982E-1,1.975314140E0,2.101726532E0
2.999981676E1,-2.658500671E-1,1.644667387E0,1.040851593E0
3.001970498E1,-7.070471048E-1,8.026769757E-1,-1.362887383E0
3.003959312E1,-7.314337492E-1,9.654152393E-2,-1.252437592E0
3.005948123E1,-7.788753510E-1,-2.300655842E-2,-5.327129364E-1
3.007936941E1,-9.988492727E-1,1.991747618E-1,-7.229146957E-1
3.009925780E1,-1.636027098E0,1.023778558E0,-2.788963318E-1
3.011914187E1,-1.630387306E-1,-2.957542539E-1,5.193595886E-1
3.013903307E1,-6.223723888E-1,1.901227236E-2,-6.717767715E-1
3.015892190E1,-9.220602512E-1,2.951340079E-1,-1.334590912E0
3.017881033E1,6.946618557E-1,9.928021431E-1,-2.620228767E0
3.019869852E1,6.600201130E-1,1.053293705E0,-2.625961304E-1
3.021858637E1,-2.557449341E-1,1.099992752E0,9.268951416E-1
3.023847464E1,-1.289821625E0,1.364189625E0,-1.046990395E0
3.025836307E1,-1.755236864E0,1.386791468E0,-1.625381470E0
3.027825101E1,-1.558989763E0,1.164937735E0,-3.193460941E0
3.029813915E1,-1.847718477E0,1.939278841E-2,-2.060997963E0
3.031802591E1,-1.015625000E0,-1.139209509E0,-2.190433502E0
3.033792638E1,1.864789486E0,-3.175365925E0,1.830295563E0
3.035779813E1,3.267821312E0,-2.789886475E0,1.089043617E0
3.037770352E1,3.649905443E0,-2.656127453E0,5.996456146E-1
3.039759163E1,2.830635071E0,-2.705858469E0,1.135718346E0
3.041745275E1,2.334054947E0,-2.498921633E0,3.143166542E0
3.043735534E1,1.401619434E0,-1.514048815E0,3.227093697E0
3.045722924E1,3.666400909E-2,-3.357660770E-1,2.241155624E0
3.047713163E1,4.467709064E-1,5.187392235E-3,-1.358051300E0
3.049702026E1,3.833699226E-2,9.674351811E-1,-3.393725872E0
3.051690934E1,-5.690253377E-1,1.054328799E0,-1.442235947E0
3.053678711E1,-5.395752192E-1,7.869732380E-2,1.911421776E0
3.055668567E1,-5.402794480E-1,-1.226173639E-1,1.012230873E0
3.057658695E1,1.204913557E-1,1.632930040E-1,-1.834961414E0
3.059647481E1,1.038558483E-1,2.071528435E-1,-1.087250710E0
3.061636267E1,-3.678726554E-1,4.754412174E-2,4.246816635E-1
3.063625146E1,-2.638286650E-1,-1.465190649E-1,7.088603973E-1
3.065613749E1,9.441524744E-2,-2.195466757E-1,4.732151031E-1
3.067602612E1,3.749847412E-3,-1.827577353E-1,5.048084259E-1
3.069591545E1,-1.034379005E-1,-1.653987169E-1,1.627788544E-1
3.071580164E1,-6.958794594E-2,-1.527149677E-1,-2.786636353E-1
3.073567928E1,-4.028761387E-2,-1.221694946E-1,-3.940629959E-1
3.075556714E1,1.979857683E-2,-5.427896976E-2,-3.512096405E-1
3.077545528E1,1.205195189E-1,-4.870676994E-2,-2.068300247E-1
3.079534347E1,1.865389645E-1,-6.174695492E-2,2.998352051E-2
3.081523169E1,1.958872080E-1,-5.467808247E-2,2.502107620E-1
3.083513115E1,1.985193193E-1,-1.718819141E-2,2.749185562E-1
3.085502072E1,1.668586433E-1,2.386569977E-3,1.209659576E-1
3.087490898E1,3.920093179E-2,7.745146751E-3,-6.933212280E-2
3.089476884E1,-1.119460166E-1,3.827250004E-2,-1.303825378E-1
3.091467253E1,-1.568672061E-1,1.749396324E-2,-9.783744812E-2
3.093456088E1,-1.484745145E-1,8.855462074E-3,-7.330894470E-3
3.095444898E1,-1.366368234E-1,2.405655384E-2,1.098508835E-1
3.097433582E1,-1.193540096E-1,2.296185493E-2,1.452245712E-1
3.099422531E1,-1.000428498E-1,8.007895947E-2,7.796001434E-2
3.101411362E1,-7.836511731E-2,1.192451715E-1,-1.172733307E-2
3.103400452E1,-7.796335220E-2,1.178346872E-1,-1.065864563E-1
3.105388974E1,-3.342247009E-2,7.175803185E-2,-1.342706680E-1
3.107377792E1,8.383780718E-3,1.592397690E-2,-5.777549744E-2
3.109366623E1,-2.647095919E-2,-6.524980068E-2,3.719902039E-2
3.111355425E1,-1.034060121E-2,-1.404337883E-1,2.048492432E-2
3.113342771E1,-1.381182671E-2,-1.388623714E-1,4.157447815E-2
3.115333062E1,-5.817428231E-2,-1.298905611E-1,4.694461823E-2
3.117323158E1,-4.901435971E-2,-1.146266460E-1,-3.201961517E-2
3.119310129E1,2.997308969E-2,-3.602743149E-2,-5.051040649E-2
3.121302955E1,3.567633033E-2,3.849685192E-2,3.986835480E-2
3.123287172E1,2.058905363E-2,3.134846687E-2,9.774208069E-3
3.125277166E1,7.286959887E-2,2.344357967E-2,-1.512050629E-2
3.127267124E1,9.129017591E-2,3.937017918E-2,-6.579399109E-3
3.129254648E1,8.922335505E-2,9.261322021E-2,-3.754615784E-2
3.131243491E1,3.555724025E-2,1.268877983E-1,-1.638507843E-2
3.133230910E1,1.373052597E-3,1.209918261E-1,4.341220856E-2
3.135222393E1,-2.574166656E-2,6.006419659E-2,5.746841431E-3
3.137209454E1,-1.674348116E-2,3.137969971E-2,-4.523849487E-2
3.139200201E1,-2.314320207E-2,1.983785629E-2,-9.638881683E-2
3.141189007E1,-7.013010979E-2,-3.869020939E-2,-1.189327240E-1
3.143179795E1,-1.365501285E-1,-1.799241304E-1,-9.218025208E-2
3.145165069E1,-1.085013449E-1,-2.873655558E-1,-3.271961212E-2
3.147152630E1,3.191334009E-2,-2.918196917E-1,2.769184113E-2
3.149142983E1,1.230320334E-1,-2.120448351E-1,1.390190125E-1
3.151131793E1,7.290792465E-2,-2.431440353E-1,1.097183228E-1
3.153119057E1,1.055914164E-2,-3.719607592E-1,2.334594727E-3
3.155109528E1,9.625428915E-2,-3.731538057E-1,-1.061058044E-1
3.157099608E1,2.252630889E-1,-2.252610922E-1,-9.976100922E-2
3.159088377E1,1.658093631E-1,-8.493673801E-2,1.812553406E-2
3.161077135E1,5.515518785E-2,2.192139626E-3,4.878139496E-2
3.163064126E1,4.116058350E-2,1.015573740E-1,1.306343079E-2
3.165053490E1,-4.533630610E-2,1.901506186E-1,-1.383399963E-2
3.167042332E1,-2.006767988E-1,2.127295732E-1,-7.435321808E-2
3.169031147E1,-2.676089406E-1,2.578783631E-1,-9.217643738E-2
3.171019957E1,-2.626730502E-1,2.496703863E-1,-5.115985870E-2
3.173008836E1,-2.730573118E-1,1.181062460E-1,-6.855487823E-2
3.174995694E1,-1.985114664E-1,2.141165733E-2,-7.765197754E-2
3.176986400E1,-5.649742484E-2,1.192796230E-2,4.340171814E-3
3.178974283E1,1.045497656E-1,9.218811989E-3,1.064901352E-1
3.180964037E1,2.081996202E-1,9.691834450E-3,1.439819336E-1
3.182952872E1,1.645685136E-1,-1.549899578E-2,1.025543213E-1
3.184942972E1,8.151286840E-2,-7.058608532E-2,-1.027584076E-2
3.186931595E1,4.167789221E-2,-8.400547504E-2,-1.248655319E-1
3.188918733E1,3.237962723E-3,-1.023279428E-1,-9.794521332E-2
3.190909289E1,-6.896755099E-2,-8.689951897E-2,7.835388184E-3
3.192898290E1,-9.262582660E-2,2.153229713E-2,5.093383789E-2
3.194884822E1,-6.147560477E-2,1.260291338E-1,4.494857788E-2
3.196874609E1,-8.939847350E-2,1.413964033E-1,-2.021026611E-2
3.198863423E1,-1.044885218E-1,1.034604311E-1,-9.296417236E-2
3.200852237E1,-3.675842285E-2,3.780531883E-2,-1.221237183E-1
3.202841048E1,2.800083160E-2,-3.575825691E-2,-7.186126709E-2
3.204829874E1,5.746799707E-2,-9.882259369E-2,3.716468811E-2
3.206816886E1,9.901389480E-2,-7.857406139E-2,1.304388046E-1
3.208808585E1,1.594504714E-1,-1.890742779E-2,9.210777283E-2
3.210797460E1,1.337724924E-1,1.802563667E-3,-3.349304199E-2
3.212786222E1,6.966900826E-2,-4.026353359E-2,-1.272630692E-1
3.214775036E1,5.731183290E-2,-5.766594410E-2,-1.381311417E-1
3.216763908E1,6.889998913E-2,-5.176305771E-2,-6.978797913E-2
3.218751286E1,3.252482414E-2,-7.004618645E-2,7.801055908E-2
3.220741552E1,-2.277305722E-2,-6.877553463E-2,1.086988449E-1
3.222730322E1,-4.435703158E-2,-8.583867550E-2,1.598834991E-2
3.224717899E1,-7.782080770E-2,-8.440816402E-2,-5.894470215E-2
3.226706746E1,-7.908979058E-2,-4.287028313E-2,-7.083702087E-2
3.228695666E1,-3.243371844E-2,1.419460773E-2,-1.246547699E-2
3.230684497E1,-2.871444821E-2,5.581378937E-3,1.992416382E-2
3.232673295E1,-3.093200922E-2,-3.301262856E-2,-4.339218140E-3
3.234663399E1,-2.890148759E-2,-5.191385746E-2,-2.392578125E-2
3.236652246E1,-2.612304688E-2,-2.414894104E-2,-1.140594482E-2
3.238639750E1,-5.998402834E-3,1.648032665E-2,1.128673553E-2
3.240628597E1,-2.756297588E-2,5.373084545E-2,-6.727218628E-3
3.242616321E1,-2.908974886E-2,5.316364765E-2,-2.402877808E-2
3.244604676E1,-2.480447292E-2,1.458418369E-2,-3.869724274E-2
3.246593514E1,6.853282452E-3,2.609598637E-2,-1.908969879E-2
3.248583863E1,7.475376129E-3,1.362884045E-2,-2.738952637E-3
3.250572669E1,-1.833736897E-3,-2.567827702E-2,-2.566814423E-2
3.252559998E1,5.495429039E-3,-6.776750088E-2,-4.197216034E-2
3.254550318E1,2.610164881E-2,-7.650411129E-2,-1.255321503E-2
3.256539120E1,4.588371515E-2,-7.967352867E-2,6.990432739E-3
3.258527951E1,5.307579041E-2,-6.274926662E-2,3.002834320E-2
3.260516737E1,8.891075850E-3,-6.507241726E-2,-4.607200623E-3
3.262505433E1,-3.802895546E-3,-3.019535542E-2,-1.727485657E-2
3.264495741E1,-2.884665132E-2,-9.155273438E-4,-1.622867584E-2
3.266484474E1,-8.117005229E-2,-4.246950150E-3,-6.337165833E-3
3.268473292E1,-4.950156808E-2,1.536285877E-2,-1.358032227E-2
3.270461667E1,-1.088970900E-2,5.876505375E-2,-8.481025696E-3
3.272450925E1,1.001292467E-2,7.603979111E-2,-2.062034607E-2
3.274438510E1,1.015630364E-2,3.444516659E-2,-5.889606476E-2
3.276427170E1,-9.406507015E-4,-6.320834160E-3,-5.869865417E-2
3.278416110E1,-3.093689680E-3,-4.619264603E-2,-3.884410858E-2
3.280404880E1,-1.867902279E-2,-8.031022549E-2,1.772212982E-2
3.282393747E1,-2.874642611E-3,-6.457841396E-2,5.856609344E-2
3.284385894E1,7.545024157E-3,-4.536950588E-2,5.937290192E-2
3.286372698E1,-1.007908583E-2,-5.659425259E-2,9.125709534E-3
3.288361496E1,-1.059848070E-2,-4.810535908E-2,-2.664184570E-2
3.290348459E1,7.175147533E-3,-2.839946747E-2,-4.333686829E-2
3.292338987E1,-8.880048990E-3,-3.294229507E-3,-1.776504517E-2
3.294326076E1,-1.296356320E-2,1.957440376E-2,5.620956421E-3
3.296314914E1,-8.229136467E-3,4.617071152E-2,-6.924629211E-3
3.298302748E1,-3.754946589E-2,4.507935047E-2,-1.699924469E-2
3.300292535E1,-4.615178704E-2,5.255520344E-2,-1.846313477E-2
3.302281797E1,-1.123335958E-2,3.258252144E-2,-4.584503174E-2
3.304270750E1,-1.216736436E-2,4.693746567E-3,-1.251411438E-2
3.306259540E1,-1.008614898E-2,-1.747822762E-2,-7.940292358E-3
3.308248264E1,2.577668428E-2,-3.500485420E-2,-2.955818176E-2
3.310237083E1,3.804263473E-2,-5.820429325E-2,-1.704216003E-3
3.312225901E1,6.470665336E-2,-3.312158585E-2,4.576015472E-2
3.314215944E1,5.549237132E-2,-8.073925972E-3,3.437328339E-2
3.316204775E1,4.843622446E-3,-3.561222553E-2,1.092052460E-2
3.318193768E1,-3.060826659E-2,-6.808149815E-2,-4.125976562E-2
3.320182652E1,-6.728315353E-2,-4.229104519E-2,-1.023511887E-1
3.322171446E1,-7.013848424E-2,2.670323849E-2,-1.024818420E-1
3.324160199E1,-5.620378256E-2,8.843553066E-2,-7.636070251E-3
3.326147744E1,-8.910277486E-2,5.326199532E-2,7.119560242E-2
3.328136546E1,-8.504262567E-2,-1.011645794E-2,-1.267623901E-2
3.330125377E1,-8.751690388E-3,-1.363754272E-2,-2.560234070E-2
3.332114216E1,4.870060086E-2,-2.870261669E-2,3.026008606E-3
3.334102867E1,6.211140752E-2,-7.538795471E-4,2.825927734E-2
3.336091865E1,6.699809432E-2,2.614569664E-2,2.551841736E-2
3.338080638E1,6.800833344E-2,-9.058713913E-3,-4.910373688E-2
3.340069457E1,2.703344822E-2,-8.156311512E-2,-8.764743805E-2
3.342058291E1,1.284351945E-2,-1.568646431E-1,-5.490779877E-2
3.344047094E1,2.594143152E-2,-1.769939661E-1,3.789424896E-2
3.346037214E1,8.687287569E-3,-1.351729631E-1,7.490253448E-2
3.348023286E1,-2.169758081E-3,-7.736372948E-2,3.995323181E-2
3.350013565E1,-1.955476403E-2,-2.384185791E-6,2.935409546E-3
3.352002253E1,-4.968452454E-2,6.367218494E-2,-3.052711487E-2
3.353991202E1,-7.948186994E-2,7.475805283E-2,-8.656311035E-2
3.355980020E1,-5.954402685E-2,9.063279629E-2,-1.113138199E-1
3.357968847E1,-4.283425212E-2,9.837663174E-2,-3.904533386E-2
3.359957063E1,-3.705644608E-2,8.191752434E-2,3.726863861E-2
3.361944669E1,-3.808617592E-3,5.381596088E-2,5.078411102E-2
3.363936624E1,8.772194386E-3,7.833361626E-3,-6.961822510E-4
3.365923726E1,1.208928227E-2,-1.268160343E-2,-3.719997406E-2
3.367914038E1,4.116281867E-2,-2.932560444E-2,-4.827690125E-2
3.369901798E1,5.178716779E-2,-4.661071301E-2,-2.189731598E-2
3.371890584E1,3.659790754E-2,-6.859433651E-2,3.071594238E-2
3.373879374E1,1.835429668E-2,-8.493483067E-2,1.749420166E-2
3.375868204E1,1.053711772E-2,-7.146418095E-2,-1.509666443E-3
3.377857015E1,2.255588770E-3,-5.892443657E-2,-2.363777161E-2
3.379845841E1,3.644526005E-4,-5.415594578E-2,-5.230236053E-2
3.381834635E1,1.421838999E-3,-6.368196011E-2,-5.786418915E-2
3.383823478E1,1.076960564E-2,-4.457676411E-2,8.344650269E-4
3.385813879E1,1.372671127E-2,-2.644109726E-2,4.179859161E-2
3.387802136E1,4.540354013E-3,1.617503166E-2,2.059173584E-2
3.389788330E1,-6.800979376E-3,3.924596310E-2,-2.098464966E-2
3.391779834E1,-3.829717636E-2,3.191554546E-2,-7.250022888E-2
3.393768689E1,-2.634766698E-2,1.679301262E-2,-7.790470123E-2
3.395756901E1,-2.746310830E-2,-1.940286160E-2,-2.264118195E-2
3.397743657E1,-3.162598610E-2,-4.571855068E-2,2.160930634E-2
3.399733891E1,-2.048367262E-2,-3.818261623E-2,3.950881958E-2
3.401722705E1,-1.963028312E-2,-2.900862694E-2,4.121685028E-2
3.403711512E1,-1.569369435E-2,-9.893774986E-3,9.126663208E-3
3.405698979E1,-4.369300604E-2,-5.252838135E-3,-3.370571136E-2
3.407689287E1,3.575950861E-3,2.587318420E-3,-6.515789032E-2
3.409679399E1,-1.319801807E-2,-3.055119514E-2,-4.641056061E-2
3.411668278E1,-1.987472177E-2,-2.675259113E-2,9.673118591E-3
3.413657020E1,2.701014280E-2,4.487514496E-3,3.974723816E-2
3.415645801E1,1.283854246E-3,2.186477184E-2,2.259922028E-2
3.417633399E1,-1.920485497E-2,2.315437794E-2,-2.998828888E-2
3.419622197E1,4.381239414E-3,1.531052589E-2,-9.631443024E-2
3.421611024E1,5.045503378E-3,3.840684891E-3,-4.690933228E-2
3.423599732E1,4.736840725E-3,-2.321565151E-2,1.546859741E-2
3.425588644E1,1.226732135E-2,-2.958726883E-2,3.754138947E-2
3.427577467E1,4.984319210E-3,-3.710579872E-2,3.101348877E-2
3.429566265E1,-2.414777875E-2,-2.909207344E-2,-1.707935333E-2
3.431555095E1,-1.395383477E-2,-3.414201736E-2,-4.336833954E-2
3.433543898E1,-1.968044043E-2,-3.156542778E-2,-5.766773224E-2
3.435532736E1,1.173862815E-2,-1.632308960E-2,-2.326297760E-2
3.437521551E1,1.120182872E-2,-3.200113773E-2,1.536178589E-2
3.439510369E1,-1.015505195E-2,-3.823590279E-2,3.623199463E-2
3.441499293E1,-5.683988333E-3,-1.461124420E-2,4.243850708E-3
3.443487994E1,-3.668367863E-3,-1.035618782E-2,-4.186439514E-2
3.445478102E1,-7.244884968E-3,-1.629650593E-2,-4.357814789E-2
3.447466924E1,-1.346638799E-2,-1.958668232E-2,-1.618766785E-2
3.449454310E1,1.726177335E-2,8.141160011E-3,1.068305969E-2
3.451443259E1,3.052949905E-3,1.153337955E-2,3.266620636E-2
3.453431675E1,-1.530054212E-2,1.681351662E-2,-2.732372284E-2
3.455420900E1,-1.772776246E-2,-1.405858994E-2,-6.312942505E-2
3.457408896E1,-1.288753748E-2,-2.233743668E-3,-4.417514801E-2
3.459399843E1,1.072800159E-2,-1.144731045E-2,-5.157470703E-3
3.461388690E1,-9.047836065E-3,-3.500711918E-2,2.516937256E-2
3.463375620E1,-1.554152369E-2,-3.880965710E-2,1.874828339E-2
3.465366314E1,-3.893971443E-4,-2.741384506E-2,7.790565491E-3
3.467355141E1,-7.001996040E-3,-2.179229259E-2,-1.411819458E-2
3.469344981E1,6.956845522E-3,-3.539919853E-3,-4.214000702E-2
3.471330857E1,-5.853474140E-4,-1.475369930E-2,-4.176712036E-2
3.473319712E1,-2.291053534E-2,-3.549826145E-2,-3.762245178E-3
3.475307595E1,-7.770657539E-4,-1.701533794E-2,6.378173828E-3
3.477297459E1,5.164504051E-3,-1.324570179E-2,1.642513275E-2
3.479285679E1,-3.366926312E-2,-9.809374809E-3,-1.998901367E-2
3.481275413E1,-3.646850586E-3,1.404976845E-2,-6.318664551E-2
3.483264354E1,1.232427359E-2,8.008956909E-3,-2.689266205E-2
3.485254328E1,-1.316392422E-2,-1.195895672E-2,8.006095886E-3
3.487243089E1,9.135007858E-4,-1.126456261E-2,2.216529846E-2
3.489231964E1,1.521089673E-2,-4.846572876E-3,1.808547974E-2
3.491219603E1,-1.177686453E-2,-1.558291912E-2,-2.470302582E-2
3.493209618E1,-1.308366656E-2,-9.231448174E-3,-5.522823334E-2
3.495198611E1,6.478488445E-3,-1.889288425E-2,-3.478431702E-2
3.497186168E1,-1.487791538E-3,-4.499173164E-2,2.250671387E-2
3.499174925E1,-5.410104990E-3,-2.718698978E-2,2.394485474E-2
3.501164525E1,1.046887040E-2,-9.458303452E-3,-1.259326935E-2
3.503152562E1,-1.540935040E-2,-1.417803764E-2,-2.374076843E-2
3.505141372E1,-1.531121135E-2,-7.510304451E-3,-4.090595245E-2
3.507130215E1,4.208505154E-3,3.045916557E-3,-2.939033508E-2
3.509119005E1,-2.054691315E-3,-6.710290909E-3,1.243209839E-2
3.511109598E1,-1.457494497E-2,-1.106703281E-2,1.868534088E-2
3.513097936E1,3.241896629E-3,-4.198670387E-3,4.243850708E-4
3.515086710E1,-2.240574360E-2,-2.838635445E-2,-1.714706421E-2
3.517075593E1,-1.955065131E-2,-2.819788456E-2,-4.604339600E-2
3.519064359E1,2.193212509E-2,-1.200401783E-2,-2.738475800E-2
3.521051411E1,9.517669678E-4,-1.771676540E-2,3.686141968E-2
3.523042000E1,6.952911615E-3,1.304149628E-4,2.262592316E-2
3.525029540E1,6.908953190E-3,3.458476067E-2,-1.448059082E-2
3.527018375E1,-1.333403587E-2,-5.012154579E-3,-4.691123962E-2
3.529007197E1,-3.465041518E-2,-1.431894302E-2,-4.968547821E-2
3.530996016E1,-3.184378147E-3,-9.983897209E-3,-2.124786377E-2
3.532984834E1,2.289241552E-2,-2.379906178E-2,2.679061890E-2
3.534974894E1,-6.280601025E-3,-4.621744156E-2,1.161861420E-2
3.536963818E1,-1.666986942E-2,-5.009818077E-2,2.542495728E-3
3.538950671E1,-5.292892456E-3,-3.138577938E-2,-5.624771118E-3
3.540941361E1,8.281856775E-3,-1.021528244E-2,-1.774692535E-2
3.542930273E1,-1.569181681E-3,-2.460193634E-2,-3.736019135E-2
3.544919926E1,-1.123991609E-2,-1.721274853E-2,-2.406597137E-2
3.546907776E1,-4.643917084E-3,-2.247858047E-2,-2.567291260E-3
3.548893815E1,-3.432780504E-3,-1.112020016E-2,7.880210876E-3
3.550884204E1,-8.491367102E-3,8.053183556E-3,-9.822845459E-3
3.552873022E1,-1.032462716E-2,1.867210865E-2,-3.984737396E-2
3.554861833E1,-3.398656845E-4,2.224981785E-2,-5.037975311E-2
3.556850671E1,-1.153916121E-3,4.568338394E-3,-2.060985565E-2
3.558837911E1,-4.885435104E-3,-2.478957176E-3,1.371669769E-2
3.560829431E1,-8.321374655E-3,-1.496255398E-2,1.551437378E-2
3.562818201E1,4.647374153E-4,-2.900040150E-2,1.411437988E-4
3.564807032E1,-7.162302732E-3,-2.677845955E-2,-1.660919189E-2
3.566793982E1,-6.493151188E-3,-3.456926346E-2,-2.924442291E-2
3.568781995E1,-1.658725739E-2,-3.809690475E-2,-2.632808685E-2
3.570770846E1,7.867068052E-3,-1.849079132E-2,-1.609802246E-2
3.572761036E1,-6.143927574E-3,-2.086937428E-2,-3.937721252E-3
3.574749878E1,-2.538561821E-4,5.729794502E-3,-2.164649963E-2
3.576738693E1,-2.018758655E-2,-3.155469894E-3,-2.920246124E-2
3.578727511E1,-2.168971300E-2,6.852984428E-3,-2.604866028E-2
3.580716309E1,-2.435594797E-3,-1.610279083E-3,-2.165412903E-2
3.582705124E1,-1.199123263E-2,-8.644223213E-3,9.353637695E-3
3.584692994E1,-8.390367031E-3,-2.070426941E-3,3.856658936E-3
3.586682903E1,-3.584861755E-3,-8.039832115E-3,-4.059791565E-3
3.588671729E1,1.409024000E-3,4.037261009E-3,-2.770709991E-2
3.590660572E1,6.412595510E-3,-1.267576218E-2,-4.209136963E-2
3.592650640E1,1.231521368E-3,-1.258814335E-2,-1.721954346E-2
3.594639487E1,9.904623032E-3,-2.026879787E-2,1.061153412E-2
3.596628309E1,-1.558580995E-2,-3.119826317E-2,1.126956940E-2
3.598614755E1,-1.252296567E-2,-3.884685040E-2,-1.969337463E-2
3.600604672E1,-7.070004940E-4,-3.115952015E-2,-4.884052277E-2
3.602593442E1,2.528876066E-3,-1.030600071E-2,-1.145267487E-2
3.604582285E1,-6.857365370E-3,3.494858742E-3,2.384281158E-2
3.606569565E1,-1.357108355E-3,2.281880379E-2,1.273727417E-2
3.608559901E1,-2.923247218E-2,3.236985207E-2,-1.427650452E-2
3.610550058E1,-8.638143539E-3,3.732204437E-3,-7.449054718E-2
3.612539316E1,-1.097393036E-2,-1.662659645E-2,-5.327796936E-2
3.614527634E1,-4.976898432E-3,-2.652800083E-2,8.262634277E-3
3.616516310E1,1.167786121E-2,-3.141880035E-2,4.038524628E-2
3.618505116E1,-3.573983908E-3,-3.511476517E-2,2.545833588E-2
3.620494118E1,8.412897587E-4,-1.619613171E-2,-1.603889465E-2
3.622482773E1,-2.588689327E-3,-2.508115768E-2,-4.778575897E-2
3.624468914E1,-9.880959988E-4,-2.069258690E-2,-3.289031982E-2
3.626459263E1,1.193809509E-2,-2.479946613E-2,-2.112674713E-2
3.628447959E1,-1.276153326E-2,-2.721571922E-2,2.201271057E-2
3.630436908E1,-4.023611546E-4,-4.762768745E-3,1.855373383E-2
3.632425730E1,-1.271286607E-2,1.290261745E-2,-1.517105103E-2
3.634414549E1,-2.304562926E-2,3.291928768E-2,-5.634880066E-2
3.636402537E1,-1.617711782E-2,2.368509769E-2,-6.769657135E-2
3.638392181E1,-6.955385208E-3,-5.390882492E-3,-1.023387909E-2
3.640381008E1,-2.518564463E-3,-2.251791954E-2,3.824901581E-2
3.642371128E1,3.545254469E-3,-1.603460312E-2,3.605175018E-2
3.644358087E1,-6.293654442E-4,-1.558423042E-2,-5.509376526E-3
3.646348761E1,-9.749561548E-3,-2.223861217E-2,-5.169487000E-2
3.648337026E1,-1.275390387E-3,-2.430403233E-2,-5.421257019E-2
3.650325100E1,-2.643764019E-3,-2.593541145E-2,-1.480770111E-2
3.652312397E1,4.929482937E-3,-1.488125324E-2,1.810932159E-2
3.654301182E1,8.940696716E-6,-2.863764763E-2,1.220893860E-2
3.656290009E1,-1.157289743E-2,-1.630485058E-2,-1.595306396E-2
3.658280361E1,-8.028686047E-3,-1.935482025E-3,-3.837680817E-2
3.660270270E1,-2.148231864E-2,-1.387500763E-2,-3.738689423E-2
3.662257384E1,1.961171627E-3,-3.059983253E-3,-7.553100586E-3
3.664244591E1,-1.015141606E-2,-1.441967487E-2,9.812355042E-3
3.666235521E1,-8.296132088E-3,-1.756036282E-2,1.149654388E-2
3.668224340E1,-8.154213428E-4,-1.133465767E-2,-2.429294586E-2
3.670213174E1,-8.488386869E-3,-1.211524010E-2,-3.374099731E-2
3.672201980E1,-4.330575466E-4,-1.441836357E-3,-2.639102936E-2
3.674192219E1,-1.275226474E-2,-6.843328476E-3,-8.567810059E-3
3.676180740E1,-5.167454481E-3,-1.380956173E-2,-1.474380493E-3
3.678168554E1,-6.022244692E-3,-1.309537888E-2,-4.495620728E-3
3.680157388E1,9.749412537E-3,-1.526510715E-2,-5.469322205E-3
3.682146211E1,-1.809859276E-2,-2.509045601E-2,-2.315044403E-2
3.684135001E1,4.523098469E-4,-1.933264732E-2,-3.354930878E-2
3.686124226E1,9.885013103E-3,-1.845121384E-2,-1.670074463E-2
3.688113854E1,-3.241240978E-3,-2.194499969E-2,2.046298981E-2
3.690102656E1,-3.829538822E-3,-1.279866695E-2,-1.203536987E-3
3.692091556E1,3.165423870E-3,1.674461365E-2,-1.084327698E-2
3.694080358E1,-1.338732243E-2,2.225828171E-2,-3.481674194E-2
3.696069226E1,-1.645827293E-2,-2.794742584E-3,-5.181121826E-2
3.698056738E1,-1.980113983E-2,-1.566958427E-2,-2.437877655E-2
3.700044002E1,-5.930036306E-3,-3.040826321E-2,6.384849548E-3
3.702034370E1,5.093485117E-3,-3.408253193E-2,1.942253113E-2
3.704023193E1,5.848705769E-4,-4.467201233E-2,-5.722045898E-6
3.706012003E1,4.439711571E-3,-1.963400841E-2,5.734443665E-3
3.708000858E1,-1.571527123E-2,-1.288914680E-2,-1.512718201E-2
3.709989673E1,-8.686482906E-4,1.706242561E-3,-4.104232788E-2
3.711977860E1,-8.789688349E-3,-9.059071541E-3,-4.969882965E-2
3.713968644E1,-2.420577407E-2,-2.290594578E-2,-1.250743866E-2
3.715957463E1,1.544654369E-4,-1.011133194E-2,1.486968994E-2
3.717946073E1,3.536731005E-3,1.314520836E-3,2.039718628E-2
3.719935108E1,-1.424038410E-2,1.087188721E-3,-1.586914062E-2
3.721923926E1,8.110612631E-3,1.621007919E-2,-5.635166168E-2
3.723910722E1,1.152491570E-2,1.153218746E-2,-4.479026794E-2
3.725900476E1,-2.089172602E-3,-1.718032360E-2,-1.024627686E-2
3.727889046E1,9.682148695E-3,-1.139652729E-2,1.927375793E-2
3.729877844E1,-7.169544697E-4,-1.195931435E-2,3.047275543E-2
3.731866671E1,-5.969971418E-3,-7.363438606E-3,-1.101875305E-2
3.733855477E1,-8.587360382E-3,-1.262199879E-2,-4.238414764E-2
3.735845630E1,-2.550753951E-2,-1.094973087E-2,-3.114700317E-2
3.737834294E1,-8.346080780E-3,-2.998173237E-2,-1.558876038E-2
3.739823027E1,6.482571363E-3,-2.328777313E-2,9.735107422E-3
3.741811841E1,-5.772769451E-3,-6.266593933E-3,5.229949951E-3
3.743800717E1,-1.180469990E-3,1.696586609E-3,-1.802635193E-2
3.745788400E1,-7.666081190E-3,9.545445442E-3,-3.956222534E-2
3.747777227E1,-1.281738281E-3,9.021282196E-3,-3.116798401E-2
3.749766000E1,-4.023224115E-3,-5.050778389E-3,-1.607131958E-2
3.751754701E1,-5.058914423E-3,-1.484632492E-2,2.553749084E-2
3.753743547E1,6.167858839E-3,-1.400792599E-2,5.076408386E-3
3.755732346E1,-8.596211672E-3,4.402399063E-4,-1.457023621E-2
3.757721176E1,-1.336887479E-2,-6.862163544E-3,-3.090763092E-2
3.759708758E1,-4.636615515E-3,-9.399414062E-3,-2.798748016E-2
3.761700233E1,-9.742885828E-3,-1.899671555E-2,-5.419731140E-3
3.763687778E1,5.482792854E-3,-2.071034908E-2,1.093673706E-2
3.765676584E1,6.398499012E-3,-1.639568806E-2,-4.166603088E-3
3.767665398E1,4.051506519E-3,-1.250219345E-2,-1.429843903E-2
3.769654201E1,-2.318817377E-2,-1.643860340E-2,-2.082824707E-2
3.771643035E1,-1.663818955E-2,-1.832950115E-2,-3.959846497E-2
3.773629673E1,5.810260773E-3,-1.723170280E-2,-2.852535248E-2
3.775620570E1,-1.114240289E-2,-2.204895020E-2,1.624488831E-2
3.777610182E1,-1.818805933E-2,1.251935959E-3,1.316642761E-2
3.779598366E1,1.311597228E-2,1.416552067E-2,-8.675575256E-3
3.781587139E1,-1.828482747E-2,3.092217445E-2,-1.055622101E-2
3.783575929E1,-2.169182897E-2,9.463071823E-3,-6.832599640E-2
3.785566013E1,-1.630219817E-2,-1.648259163E-2,-3.093719482E-2
3.787552972E1,3.988593817E-3,-1.876211166E-2,5.239486694E-3
3.789543662E1,-6.206631660E-4,-3.777551651E-2,1.301670074E-2
3.791532505E1,-5.744159222E-3,-4.025542736E-2,9.081840515E-3
3.793521299E1,-6.005167961E-4,-3.973507881E-2,2.650260925E-3
3.795509959E1,-3.108471632E-3,-1.907908916E-2,-8.815765381E-3
3.797498761E1,-1.505494118E-3,-2.059543133E-2,-3.121662140E-2
3.799486534E1,-9.512454271E-3,-1.551282406E-2,-4.446887970E-2
3.801473875E1,-1.705265045E-2,-1.871359348E-2,-1.482582092E-2
3.803464126E1,3.795325756E-3,-1.214003563E-2,1.047420502E-2
3.805452956E1,-1.576364040E-3,1.321566105E-2,1.244163513E-2
3.807441767E1,-9.847760201E-3,1.569998264E-2,-2.135372162E-2
3.809430577E1,-2.115339041E-3,2.647352219E-2,-5.295467377E-2
3.811420701E1,4.385501146E-3,7.214069366E-3,-4.743671417E-2
3.813409333E1,4.268348217E-3,-9.995222092E-3,5.825042725E-3
3.815396556E1,1.467195153E-2,-1.232314110E-2,3.397750854E-2
3.817385374E1,3.616571426E-3,-1.776385307E-2,1.662731171E-2
3.819375946E1,-3.736495972E-3,-1.586341858E-2,-6.237030029E-4
3.821364818E1,-1.218131185E-2,-8.264780045E-3,-3.935623169E-2
3.823353636E1,-1.001161337E-2,-9.445786476E-3,-3.815078735E-2
3.825340497E1,-1.311582327E-2,-2.525937557E-2,-6.494522095E-3
3.827329963E1,1.922845840E-4,-1.160669327E-2,1.126670837E-2
3.829318781E1,3.756046295E-3,-3.668665886E-3,1.514339447E-2
3.831306062E1,-4.221975803E-3,-2.251148224E-3,-1.696586609E-3
3.833294640E1,-3.973305225E-3,-5.791068077E-3,-3.610897064E-2
3.835285249E1,-9.400874376E-3,-5.825757980E-3,-2.793598175E-2
3.837274075E1,-1.047536731E-2,-1.543998718E-2,-2.360248566E-2
3.839264004E1,-2.161413431E-3,-1.295316219E-2,4.818916321E-3
3.841252782E1,6.302624941E-3,-1.444256306E-2,1.535987854E-2
3.843242536E1,7.558166981E-4,-1.549756527E-2,-2.899169922E-4
3.845230415E1,-6.745845079E-3,-1.662039757E-2,-3.371810913E-2
3.847219241E1,-8.078992367E-3,-7.545590401E-3,-3.253841400E-2
3.849205476E1,-6.123393774E-3,-6.765842438E-3,-1.378250122E-2
3.851195776E1,2.934932709E-4,4.172086716E-3,-1.172256470E-2
3.853184622E1,-1.371264458E-3,-2.182722092E-4,1.113891602E-3
3.855173412E1,-1.138907671E-2,-8.554697037E-3,5.302429199E-4
3.857162235E1,-2.012220025E-2,-1.782071590E-2,-3.516674042E-2
3.859151086E1,4.467427731E-3,-2.726554871E-2,-3.681659698E-2
3.861139261E1,1.713961363E-2,-2.027750015E-2,1.777648926E-3
3.863130000E1,2.289414406E-4,-6.770730019E-3,3.169155121E-2
3.865116837E1,-3.539681435E-3,1.401531696E-2,2.734184265E-3
3.867107413E1,1.364648342E-4,1.599752903E-2,-3.238201141E-2
3.869096472E1,-2.264031768E-2,1.379895210E-2,-4.886341095E-2
3.871085303E1,-6.771534681E-3,-2.279758453E-2,-5.649089813E-2
3.873074125E1,-2.508789301E-3,-3.494524956E-2,-9.353637695E-3
3.875062866E1,1.417076588E-2,-3.078150749E-2,4.754066467E-3
3.877050415E1,1.222893596E-2,-3.475248814E-2,1.332378387E-2
3.879040027E1,4.038512707E-4,-3.613913059E-2,2.519607544E-3
3.881028080E1,-1.290550828E-2,-3.925609589E-2,-1.273345947E-2
3.883016899E1,-3.664761782E-3,-3.609001637E-2,-2.832794189E-2
3.885005648E1,1.184105873E-3,-2.930331230E-2,-2.621841431E-2
3.886995838E1,-7.168024778E-3,-2.076709270E-2,-1.017284393E-2
3.888984465E1,-8.474707603E-3,-1.570439339E-2,4.220962524E-3
3.890973295E1,-6.206274033E-3,1.172804832E-2,-5.237579346E-3
3.892959440E1,-9.535759687E-3,2.506792545E-2,-2.104473114E-2
3.894948373E1,-1.238092780E-2,2.486002445E-2,-4.372119904E-2
3.896938644E1,-4.433393478E-3,2.079844475E-3,-3.400993347E-2
3.898927438E1,2.821803093E-3,3.294944763E-4,5.936622620E-3
3.900916289E1,3.923982382E-3,-1.912629604E-2,2.197265625E-2
3.902903602E1,1.234114170E-4,-1.978898048E-2,3.931045532E-3
3.904893539E1,3.739625216E-3,-2.099943161E-2,-2.020835876E-2
3.906881141E1,-7.102459669E-3,-2.821564674E-2,-2.939701080E-2
3.908871538E1,-9.176313877E-3,-1.497006416E-2,-2.350997925E-2
3.910860369E1,1.340895891E-3,-2.087068558E-2,-2.139282227E-2
3.912849167E1,1.977324486E-3,-1.295149326E-2,1.203536987E-3
3.914837997E1,2.538681030E-3,-1.152181625E-2,1.773834229E-3
3.916826824E1,-1.161128283E-3,-9.099125862E-3,-9.012222290E-3
3.918815642E1,-1.251697540E-2,-1.312518120E-2,-2.091121674E-2
3.920805673E1,-5.874633789E-3,-5.463123322E-3,-2.330875397E-2
3.922794630E1,-8.436977863E-3,-9.605526924E-3,-1.666355133E-2
3.924783212E1,1.053601503E-3,-1.393651962E-2,-5.167007446E-3
3.926772051E1,-4.804611206E-3,-6.506204605E-3,-6.586074829E-3
3.928759645E1,-1.119557023E-2,-6.717443466E-3,-2.147769928E-2
3.930748426E1,-8.102685213E-3,-1.042711735E-2,-2.315902710E-2
3.932737233E1,-1.418957114E-2,-4.583835602E-3,-2.347278595E-2
3.934726031E1,-6.544232368E-3,-1.157772541E-2,-1.620292664E-3
3.936714886E1,4.614502192E-3,-2.034902573E-4,2.053260803E-3
3.938704949E1,-1.006275415E-3,-6.529569626E-3,-6.418228149E-3
3.940690647E1,-2.192264795E-2,-1.296710968E-2,-2.087688446E-2
3.942682546E1,-1.110947132E-2,-2.114963531E-2,-4.130554199E-2
3.944671596E1,1.346203685E-2,-2.115571499E-2,-3.147029877E-2
3.946660361E1,6.690472364E-3,-2.033376694E-2,2.674579620E-2
3.948649013E1,-7.945001125E-3,-4.379153252E-3,1.838016510E-2
3.950636716E1,1.860082150E-3,9.294152260E-3,-1.770019531E-3
3.952625539E1,-1.802498102E-2,2.940201759E-2,-2.687168121E-2
3.954614378E1,-7.020205259E-3,2.266407013E-3,-6.858825684E-2
3.956603037E1,-5.661249161E-3,-2.335798740E-2,-3.351402283E-2
3.958591990E1,2.016761899E-2,-3.027725220E-2,8.295059204E-3
3.960580825E1,1.791977882E-2,-3.682911396E-2,1.469326019E-2
